"participant","language","musical_practice","key_resp.corr","key_resp.rt","trials","audio1","audio2","Age","Sex","Language"
"58bfee7de5869400018f5e9e","french english","y",1,7.9273,14,"stimuli/E4.wav","stimuli/B4.wav","38","Male","French"
"58bfee7de5869400018f5e9e","french english","y",1,6.3274,16,"stimuli/G4.wav","stimuli/A4.wav","38","Male","French"
"58bfee7de5869400018f5e9e","french english","y",1,6.888,12,"stimuli/A4.wav","stimuli/D4.wav","38","Male","French"
"58bfee7de5869400018f5e9e","french english","y",1,4.5192,6,"stimuli/G4.wav","stimuli/G4.wav","38","Male","French"
"58bfee7de5869400018f5e9e","french english","y",1,4.2141,15,"stimuli/Eb4.wav","stimuli/Bb4.wav","38","Male","French"
"58bfee7de5869400018f5e9e","french english","y",1,4.2779,4,"stimuli/C5.wav","stimuli/Eb4.wav","38","Male","French"
"58bfee7de5869400018f5e9e","french english","y",1,4.0928,3,"stimuli/Eb4.wav","stimuli/Eb4.wav","38","Male","French"
"58bfee7de5869400018f5e9e","french english","y",1,4.0468,8,"stimuli/Bb4.wav","stimuli/C5.wav","38","Male","French"
"58bfee7de5869400018f5e9e","french english","y",1,4.3216,5,"stimuli/C4.wav","stimuli/F4.wav","38","Male","French"
"58bfee7de5869400018f5e9e","french english","y",1,4.1341,19,"stimuli/Eb4.wav","stimuli/E4.wav","38","Male","French"
"58bfee7de5869400018f5e9e","french english","y",1,4.0847,18,"stimuli/C5.wav","stimuli/C5.wav","38","Male","French"
"58bfee7de5869400018f5e9e","french english","y",1,3.9103,2,"stimuli/F4.wav","stimuli/Db4.wav","38","Male","French"
"58bfee7de5869400018f5e9e","french english","y",1,4.1274,0,"stimuli/A4.wav","stimuli/Bb4.wav","38","Male","French"
"58bfee7de5869400018f5e9e","french english","y",1,3.9625,11,"stimuli/C4.wav","stimuli/Ab4.wav","38","Male","French"
"58bfee7de5869400018f5e9e","french english","y",1,3.9067,10,"stimuli/Db4.wav","stimuli/Ab4.wav","38","Male","French"
"58bfee7de5869400018f5e9e","french english","y",1,3.8007,17,"stimuli/C4.wav","stimuli/D4.wav","38","Male","French"
"58bfee7de5869400018f5e9e","french english","y",1,3.894,7,"stimuli/Bb4.wav","stimuli/Db4.wav","38","Male","French"
"58bfee7de5869400018f5e9e","french english","y",1,4.4975,1,"stimuli/D4.wav","stimuli/F4.wav","38","Male","French"
"58bfee7de5869400018f5e9e","french english","y",1,3.9611,9,"stimuli/B4.wav","stimuli/B4.wav","38","Male","French"
"58bfee7de5869400018f5e9e","french english","y",1,4.5843,13,"stimuli/F4.wav","stimuli/G4.wav","38","Male","French"
"5c75c0b13348af0001919592","French","n",1,4.342,4,"stimuli/C5.wav","stimuli/Eb4.wav","30","Female","French"
"5c75c0b13348af0001919592","French","n",1,5.278,19,"stimuli/Eb4.wav","stimuli/E4.wav","30","Female","French"
"5c75c0b13348af0001919592","French","n",1,4.539,13,"stimuli/F4.wav","stimuli/G4.wav","30","Female","French"
"5c75c0b13348af0001919592","French","n",1,4.172,1,"stimuli/D4.wav","stimuli/F4.wav","30","Female","French"
"5c75c0b13348af0001919592","French","n",1,4.125,11,"stimuli/C4.wav","stimuli/Ab4.wav","30","Female","French"
"5c75c0b13348af0001919592","French","n",1,4.152,16,"stimuli/G4.wav","stimuli/A4.wav","30","Female","French"
"5c75c0b13348af0001919592","French","n",1,4.272,5,"stimuli/C4.wav","stimuli/F4.wav","30","Female","French"
"5c75c0b13348af0001919592","French","n",1,4.288,8,"stimuli/Bb4.wav","stimuli/C5.wav","30","Female","French"
"5c75c0b13348af0001919592","French","n",1,4.187,6,"stimuli/G4.wav","stimuli/G4.wav","30","Female","French"
"5c75c0b13348af0001919592","French","n",1,4.705,10,"stimuli/Db4.wav","stimuli/Ab4.wav","30","Female","French"
"5c75c0b13348af0001919592","French","n",1,4.335,15,"stimuli/Eb4.wav","stimuli/Bb4.wav","30","Female","French"
"5c75c0b13348af0001919592","French","n",1,4.305,9,"stimuli/B4.wav","stimuli/B4.wav","30","Female","French"
"5c75c0b13348af0001919592","French","n",1,4.137,3,"stimuli/Eb4.wav","stimuli/Eb4.wav","30","Female","French"
"5c75c0b13348af0001919592","French","n",1,4.042,12,"stimuli/A4.wav","stimuli/D4.wav","30","Female","French"
"5c75c0b13348af0001919592","French","n",1,5.121,0,"stimuli/A4.wav","stimuli/Bb4.wav","30","Female","French"
"5c75c0b13348af0001919592","French","n",1,4.119,7,"stimuli/Bb4.wav","stimuli/Db4.wav","30","Female","French"
"5c75c0b13348af0001919592","French","n",1,4.171,2,"stimuli/F4.wav","stimuli/Db4.wav","30","Female","French"
"5c75c0b13348af0001919592","French","n",1,4.172,14,"stimuli/E4.wav","stimuli/B4.wav","30","Female","French"
"5c75c0b13348af0001919592","French","n",1,4.371,17,"stimuli/C4.wav","stimuli/D4.wav","30","Female","French"
"5c75c0b13348af0001919592","French","n",1,4.387,18,"stimuli/C5.wav","stimuli/C5.wav","30","Female","French"
"5d28a3187d6ad00001a33280","french","n",1,5.208,5,"stimuli/C4.wav","stimuli/F4.wav","34","Male","French"
"5d28a3187d6ad00001a33280","french","n",1,7.285,16,"stimuli/G4.wav","stimuli/A4.wav","34","Male","French"
"5d28a3187d6ad00001a33280","french","n",1,5.684,1,"stimuli/D4.wav","stimuli/F4.wav","34","Male","French"
"5d28a3187d6ad00001a33280","french","n",1,4.485,0,"stimuli/A4.wav","stimuli/Bb4.wav","34","Male","French"
"5d28a3187d6ad00001a33280","french","n",1,5.388,14,"stimuli/E4.wav","stimuli/B4.wav","34","Male","French"
"5d28a3187d6ad00001a33280","french","n",1,5.646,6,"stimuli/G4.wav","stimuli/G4.wav","34","Male","French"
"5d28a3187d6ad00001a33280","french","n",1,4.553,3,"stimuli/Eb4.wav","stimuli/Eb4.wav","34","Male","French"
"5d28a3187d6ad00001a33280","french","n",1,4.219,4,"stimuli/C5.wav","stimuli/Eb4.wav","34","Male","French"
"5d28a3187d6ad00001a33280","french","n",1,4.41,15,"stimuli/Eb4.wav","stimuli/Bb4.wav","34","Male","French"
"5d28a3187d6ad00001a33280","french","n",1,4.84,12,"stimuli/A4.wav","stimuli/D4.wav","34","Male","French"
"5d28a3187d6ad00001a33280","french","n",1,4.745,8,"stimuli/Bb4.wav","stimuli/C5.wav","34","Male","French"
"5d28a3187d6ad00001a33280","french","n",1,4.745,13,"stimuli/F4.wav","stimuli/G4.wav","34","Male","French"
"5d28a3187d6ad00001a33280","french","n",1,4.27,18,"stimuli/C5.wav","stimuli/C5.wav","34","Male","French"
"5d28a3187d6ad00001a33280","french","n",1,5.99,19,"stimuli/Eb4.wav","stimuli/E4.wav","34","Male","French"
"5d28a3187d6ad00001a33280","french","n",1,7.227,10,"stimuli/Db4.wav","stimuli/Ab4.wav","34","Male","French"
"5d28a3187d6ad00001a33280","french","n",1,5.293,9,"stimuli/B4.wav","stimuli/B4.wav","34","Male","French"
"5d28a3187d6ad00001a33280","french","n",1,5.607,17,"stimuli/C4.wav","stimuli/D4.wav","34","Male","French"
"5d28a3187d6ad00001a33280","french","n",1,5.558,2,"stimuli/F4.wav","stimuli/Db4.wav","34","Male","French"
"5d28a3187d6ad00001a33280","french","n",1,6.889,11,"stimuli/C4.wav","stimuli/Ab4.wav","34","Male","French"
"5d28a3187d6ad00001a33280","french","n",1,4.775,7,"stimuli/Bb4.wav","stimuli/Db4.wav","34","Male","French"
"5d66b4f503b0d900195ca627","French","n",1,4.2947,15,"stimuli/Eb4.wav","stimuli/Bb4.wav","59","Male","French"
"5d66b4f503b0d900195ca627","French","n",1,4.9102,7,"stimuli/Bb4.wav","stimuli/Db4.wav","59","Male","French"
"5d66b4f503b0d900195ca627","French","n",1,4.609,14,"stimuli/E4.wav","stimuli/B4.wav","59","Male","French"
"5d66b4f503b0d900195ca627","French","n",1,4.6941,17,"stimuli/C4.wav","stimuli/D4.wav","59","Male","French"
"5d66b4f503b0d900195ca627","French","n",1,4.4112,1,"stimuli/D4.wav","stimuli/F4.wav","59","Male","French"
"5d66b4f503b0d900195ca627","French","n",1,4.3814,6,"stimuli/G4.wav","stimuli/G4.wav","59","Male","French"
"5d66b4f503b0d900195ca627","French","n",1,4.414,16,"stimuli/G4.wav","stimuli/A4.wav","59","Male","French"
"5d66b4f503b0d900195ca627","French","n",1,4.1192,13,"stimuli/F4.wav","stimuli/G4.wav","59","Male","French"
"5d66b4f503b0d900195ca627","French","n",1,4.2288,18,"stimuli/C5.wav","stimuli/C5.wav","59","Male","French"
"5d66b4f503b0d900195ca627","French","n",1,4.2883,5,"stimuli/C4.wav","stimuli/F4.wav","59","Male","French"
"5d66b4f503b0d900195ca627","French","n",1,4.029,11,"stimuli/C4.wav","stimuli/Ab4.wav","59","Male","French"
"5d66b4f503b0d900195ca627","French","n",1,4.1784,12,"stimuli/A4.wav","stimuli/D4.wav","59","Male","French"
"5d66b4f503b0d900195ca627","French","n",1,4.0694,8,"stimuli/Bb4.wav","stimuli/C5.wav","59","Male","French"
"5d66b4f503b0d900195ca627","French","n",1,4.1025,4,"stimuli/C5.wav","stimuli/Eb4.wav","59","Male","French"
"5d66b4f503b0d900195ca627","French","n",1,4.3008,9,"stimuli/B4.wav","stimuli/B4.wav","59","Male","French"
"5d66b4f503b0d900195ca627","French","n",1,4.0197,0,"stimuli/A4.wav","stimuli/Bb4.wav","59","Male","French"
"5d66b4f503b0d900195ca627","French","n",1,4.4352,2,"stimuli/F4.wav","stimuli/Db4.wav","59","Male","French"
"5d66b4f503b0d900195ca627","French","n",1,4.0449,3,"stimuli/Eb4.wav","stimuli/Eb4.wav","59","Male","French"
"5d66b4f503b0d900195ca627","French","n",1,4.0231,10,"stimuli/Db4.wav","stimuli/Ab4.wav","59","Male","French"
"5d66b4f503b0d900195ca627","French","n",1,4.3938,19,"stimuli/Eb4.wav","stimuli/E4.wav","59","Male","French"
"5d726b8a0c3f0f0017cdfcf7","French","n",1,4.1504,14,"stimuli/E4.wav","stimuli/B4.wav","34","Male","French"
"5d726b8a0c3f0f0017cdfcf7","French","n",1,4.3486,6,"stimuli/G4.wav","stimuli/G4.wav","34","Male","French"
"5d726b8a0c3f0f0017cdfcf7","French","n",1,3.8906,1,"stimuli/D4.wav","stimuli/F4.wav","34","Male","French"
"5d726b8a0c3f0f0017cdfcf7","French","n",1,3.6439,9,"stimuli/B4.wav","stimuli/B4.wav","34","Male","French"
"5d726b8a0c3f0f0017cdfcf7","French","n",1,3.5818,11,"stimuli/C4.wav","stimuli/Ab4.wav","34","Male","French"
"5d726b8a0c3f0f0017cdfcf7","French","n",1,3.8224,19,"stimuli/Eb4.wav","stimuli/E4.wav","34","Male","French"
"5d726b8a0c3f0f0017cdfcf7","French","n",1,4.3008,0,"stimuli/A4.wav","stimuli/Bb4.wav","34","Male","French"
"5d726b8a0c3f0f0017cdfcf7","French","n",1,4.3995,2,"stimuli/F4.wav","stimuli/Db4.wav","34","Male","French"
"5d726b8a0c3f0f0017cdfcf7","French","n",1,4.161,13,"stimuli/F4.wav","stimuli/G4.wav","34","Male","French"
"5d726b8a0c3f0f0017cdfcf7","French","n",1,4.1873,17,"stimuli/C4.wav","stimuli/D4.wav","34","Male","French"
"5d726b8a0c3f0f0017cdfcf7","French","n",1,4.3757,16,"stimuli/G4.wav","stimuli/A4.wav","34","Male","French"
"5d726b8a0c3f0f0017cdfcf7","French","n",1,3.9867,4,"stimuli/C5.wav","stimuli/Eb4.wav","34","Male","French"
"5d726b8a0c3f0f0017cdfcf7","French","n",1,3.9942,5,"stimuli/C4.wav","stimuli/F4.wav","34","Male","French"
"5d726b8a0c3f0f0017cdfcf7","French","n",1,4.6576,8,"stimuli/Bb4.wav","stimuli/C5.wav","34","Male","French"
"5d726b8a0c3f0f0017cdfcf7","French","n",1,4.0365,3,"stimuli/Eb4.wav","stimuli/Eb4.wav","34","Male","French"
"5d726b8a0c3f0f0017cdfcf7","French","n",1,3.946,18,"stimuli/C5.wav","stimuli/C5.wav","34","Male","French"
"5d726b8a0c3f0f0017cdfcf7","French","n",1,3.7585,7,"stimuli/Bb4.wav","stimuli/Db4.wav","34","Male","French"
"5d726b8a0c3f0f0017cdfcf7","French","n",1,4.668,12,"stimuli/A4.wav","stimuli/D4.wav","34","Male","French"
"5d726b8a0c3f0f0017cdfcf7","French","n",1,3.7676,10,"stimuli/Db4.wav","stimuli/Ab4.wav","34","Male","French"
"5d726b8a0c3f0f0017cdfcf7","French","n",1,3.7392,15,"stimuli/Eb4.wav","stimuli/Bb4.wav","34","Male","French"
"5e11434b01423f81a3ff9846","french","n",1,4.637,18,"stimuli/C5.wav","stimuli/C5.wav","38","Male","French"
"5e11434b01423f81a3ff9846","french","n",1,4.421,0,"stimuli/A4.wav","stimuli/Bb4.wav","38","Male","French"
"5e11434b01423f81a3ff9846","french","n",1,4.189,12,"stimuli/A4.wav","stimuli/D4.wav","38","Male","French"
"5e11434b01423f81a3ff9846","french","n",1,4.273,4,"stimuli/C5.wav","stimuli/Eb4.wav","38","Male","French"
"5e11434b01423f81a3ff9846","french","n",1,4.437,2,"stimuli/F4.wav","stimuli/Db4.wav","38","Male","French"
"5e11434b01423f81a3ff9846","french","n",1,5.304,11,"stimuli/C4.wav","stimuli/Ab4.wav","38","Male","French"
"5e11434b01423f81a3ff9846","french","n",1,6.324,13,"stimuli/F4.wav","stimuli/G4.wav","38","Male","French"
"5e11434b01423f81a3ff9846","french","n",1,4.431,17,"stimuli/C4.wav","stimuli/D4.wav","38","Male","French"
"5e11434b01423f81a3ff9846","french","n",1,4.409,5,"stimuli/C4.wav","stimuli/F4.wav","38","Male","French"
"5e11434b01423f81a3ff9846","french","n",1,4.306,3,"stimuli/Eb4.wav","stimuli/Eb4.wav","38","Male","French"
"5e11434b01423f81a3ff9846","french","n",1,4.154,6,"stimuli/G4.wav","stimuli/G4.wav","38","Male","French"
"5e11434b01423f81a3ff9846","french","n",1,4.111,15,"stimuli/Eb4.wav","stimuli/Bb4.wav","38","Male","French"
"5e11434b01423f81a3ff9846","french","n",1,4.421,1,"stimuli/D4.wav","stimuli/F4.wav","38","Male","French"
"5e11434b01423f81a3ff9846","french","n",1,3.919,9,"stimuli/B4.wav","stimuli/B4.wav","38","Male","French"
"5e11434b01423f81a3ff9846","french","n",1,3.904,8,"stimuli/Bb4.wav","stimuli/C5.wav","38","Male","French"
"5e11434b01423f81a3ff9846","french","n",1,4.054,19,"stimuli/Eb4.wav","stimuli/E4.wav","38","Male","French"
"5e11434b01423f81a3ff9846","french","n",1,4.142,14,"stimuli/E4.wav","stimuli/B4.wav","38","Male","French"
"5e11434b01423f81a3ff9846","french","n",1,4.045,16,"stimuli/G4.wav","stimuli/A4.wav","38","Male","French"
"5e11434b01423f81a3ff9846","french","n",1,3.99,10,"stimuli/Db4.wav","stimuli/Ab4.wav","38","Male","French"
"5e11434b01423f81a3ff9846","french","n",1,3.749,7,"stimuli/Bb4.wav","stimuli/Db4.wav","38","Male","French"
"5e15aae07bf572b8f97a847d","french","n",1,5.1856,16,"stimuli/G4.wav","stimuli/A4.wav","30","Male","French"
"5e15aae07bf572b8f97a847d","french","n",1,4.26,17,"stimuli/C4.wav","stimuli/D4.wav","30","Male","French"
"5e15aae07bf572b8f97a847d","french","n",1,4.4434,15,"stimuli/Eb4.wav","stimuli/Bb4.wav","30","Male","French"
"5e15aae07bf572b8f97a847d","french","n",1,4.9252,11,"stimuli/C4.wav","stimuli/Ab4.wav","30","Male","French"
"5e15aae07bf572b8f97a847d","french","n",1,5.0093,8,"stimuli/Bb4.wav","stimuli/C5.wav","30","Male","French"
"5e15aae07bf572b8f97a847d","french","n",1,5.8285,14,"stimuli/E4.wav","stimuli/B4.wav","30","Male","French"
"5e15aae07bf572b8f97a847d","french","n",1,5.3658,12,"stimuli/A4.wav","stimuli/D4.wav","30","Male","French"
"5e15aae07bf572b8f97a847d","french","n",1,4.2203,9,"stimuli/B4.wav","stimuli/B4.wav","30","Male","French"
"5e15aae07bf572b8f97a847d","french","n",1,4.1086,10,"stimuli/Db4.wav","stimuli/Ab4.wav","30","Male","French"
"5e15aae07bf572b8f97a847d","french","n",1,4.3499,18,"stimuli/C5.wav","stimuli/C5.wav","30","Male","French"
"5e15aae07bf572b8f97a847d","french","n",1,3.9591,5,"stimuli/C4.wav","stimuli/F4.wav","30","Male","French"
"5e15aae07bf572b8f97a847d","french","n",1,4.2063,0,"stimuli/A4.wav","stimuli/Bb4.wav","30","Male","French"
"5e15aae07bf572b8f97a847d","french","n",1,4.9786,1,"stimuli/D4.wav","stimuli/F4.wav","30","Male","French"
"5e15aae07bf572b8f97a847d","french","n",1,4.4341,13,"stimuli/F4.wav","stimuli/G4.wav","30","Male","French"
"5e15aae07bf572b8f97a847d","french","n",1,3.9648,7,"stimuli/Bb4.wav","stimuli/Db4.wav","30","Male","French"
"5e15aae07bf572b8f97a847d","french","n",1,3.8013,3,"stimuli/Eb4.wav","stimuli/Eb4.wav","30","Male","French"
"5e15aae07bf572b8f97a847d","french","n",1,4.6446,19,"stimuli/Eb4.wav","stimuli/E4.wav","30","Male","French"
"5e15aae07bf572b8f97a847d","french","n",1,4.1094,6,"stimuli/G4.wav","stimuli/G4.wav","30","Male","French"
"5e15aae07bf572b8f97a847d","french","n",1,3.7628,2,"stimuli/F4.wav","stimuli/Db4.wav","30","Male","French"
"5e15aae07bf572b8f97a847d","french","n",1,3.7528,4,"stimuli/C5.wav","stimuli/Eb4.wav","30","Male","French"
"5e2c96a6ec357b2b16b15d31","French English","y",1,17.687,5,"stimuli/C4.wav","stimuli/F4.wav","66","Female","French"
"5e2c96a6ec357b2b16b15d31","French English","y",1,4.986,15,"stimuli/Eb4.wav","stimuli/Bb4.wav","66","Female","French"
"5e2c96a6ec357b2b16b15d31","French English","y",1,4.402,8,"stimuli/Bb4.wav","stimuli/C5.wav","66","Female","French"
"5e2c96a6ec357b2b16b15d31","French English","y",1,4.336,11,"stimuli/C4.wav","stimuli/Ab4.wav","66","Female","French"
"5e2c96a6ec357b2b16b15d31","French English","y",1,4.371,18,"stimuli/C5.wav","stimuli/C5.wav","66","Female","French"
"5e2c96a6ec357b2b16b15d31","French English","y",1,4.435,16,"stimuli/G4.wav","stimuli/A4.wav","66","Female","French"
"5e2c96a6ec357b2b16b15d31","French English","y",1,3.869,6,"stimuli/G4.wav","stimuli/G4.wav","66","Female","French"
"5e2c96a6ec357b2b16b15d31","French English","y",1,4.419,0,"stimuli/A4.wav","stimuli/Bb4.wav","66","Female","French"
"5e2c96a6ec357b2b16b15d31","French English","y",1,4.318,3,"stimuli/Eb4.wav","stimuli/Eb4.wav","66","Female","French"
"5e2c96a6ec357b2b16b15d31","French English","y",1,4.267,17,"stimuli/C4.wav","stimuli/D4.wav","66","Female","French"
"5e2c96a6ec357b2b16b15d31","French English","y",1,4.336,13,"stimuli/F4.wav","stimuli/G4.wav","66","Female","French"
"5e2c96a6ec357b2b16b15d31","French English","y",1,4.366,7,"stimuli/Bb4.wav","stimuli/Db4.wav","66","Female","French"
"5e2c96a6ec357b2b16b15d31","French English","y",1,4.166,1,"stimuli/D4.wav","stimuli/F4.wav","66","Female","French"
"5e2c96a6ec357b2b16b15d31","French English","y",1,4.1,4,"stimuli/C5.wav","stimuli/Eb4.wav","66","Female","French"
"5e2c96a6ec357b2b16b15d31","French English","y",1,4.187,9,"stimuli/B4.wav","stimuli/B4.wav","66","Female","French"
"5e2c96a6ec357b2b16b15d31","French English","y",1,4.17,2,"stimuli/F4.wav","stimuli/Db4.wav","66","Female","French"
"5e2c96a6ec357b2b16b15d31","French English","y",1,4.138,19,"stimuli/Eb4.wav","stimuli/E4.wav","66","Female","French"
"5e2c96a6ec357b2b16b15d31","French English","y",1,4.019,10,"stimuli/Db4.wav","stimuli/Ab4.wav","66","Female","French"
"5e2c96a6ec357b2b16b15d31","French English","y",1,4.069,14,"stimuli/E4.wav","stimuli/B4.wav","66","Female","French"
"5e2c96a6ec357b2b16b15d31","French English","y",1,4.053,12,"stimuli/A4.wav","stimuli/D4.wav","66","Female","French"
"5e34ff524bf4624c3fcb4b54","french","n",1,4.7005,16,"stimuli/G4.wav","stimuli/A4.wav","33","Female","French"
"5e34ff524bf4624c3fcb4b54","french","n",1,4.6015,11,"stimuli/C4.wav","stimuli/Ab4.wav","33","Female","French"
"5e34ff524bf4624c3fcb4b54","french","n",1,5.8829,2,"stimuli/F4.wav","stimuli/Db4.wav","33","Female","French"
"5e34ff524bf4624c3fcb4b54","french","n",1,5.2867,5,"stimuli/C4.wav","stimuli/F4.wav","33","Female","French"
"5e34ff524bf4624c3fcb4b54","french","n",1,4.6416,7,"stimuli/Bb4.wav","stimuli/Db4.wav","33","Female","French"
"5e34ff524bf4624c3fcb4b54","french","n",1,5.9685,10,"stimuli/Db4.wav","stimuli/Ab4.wav","33","Female","French"
"5e34ff524bf4624c3fcb4b54","french","n",1,4.9999,17,"stimuli/C4.wav","stimuli/D4.wav","33","Female","French"
"5e34ff524bf4624c3fcb4b54","french","n",1,4.3835,12,"stimuli/A4.wav","stimuli/D4.wav","33","Female","French"
"5e34ff524bf4624c3fcb4b54","french","n",1,4.4448,18,"stimuli/C5.wav","stimuli/C5.wav","33","Female","French"
"5e34ff524bf4624c3fcb4b54","french","n",1,4.5995,9,"stimuli/B4.wav","stimuli/B4.wav","33","Female","French"
"5e34ff524bf4624c3fcb4b54","french","n",1,4.5741,19,"stimuli/Eb4.wav","stimuli/E4.wav","33","Female","French"
"5e34ff524bf4624c3fcb4b54","french","n",1,4.5864,14,"stimuli/E4.wav","stimuli/B4.wav","33","Female","French"
"5e34ff524bf4624c3fcb4b54","french","n",1,4.8677,4,"stimuli/C5.wav","stimuli/Eb4.wav","33","Female","French"
"5e34ff524bf4624c3fcb4b54","french","n",1,5.0998,15,"stimuli/Eb4.wav","stimuli/Bb4.wav","33","Female","French"
"5e34ff524bf4624c3fcb4b54","french","n",1,4.5522,1,"stimuli/D4.wav","stimuli/F4.wav","33","Female","French"
"5e34ff524bf4624c3fcb4b54","french","n",1,4.7979,13,"stimuli/F4.wav","stimuli/G4.wav","33","Female","French"
"5e34ff524bf4624c3fcb4b54","french","n",1,4.5311,0,"stimuli/A4.wav","stimuli/Bb4.wav","33","Female","French"
"5e34ff524bf4624c3fcb4b54","french","n",1,4.4746,8,"stimuli/Bb4.wav","stimuli/C5.wav","33","Female","French"
"5e34ff524bf4624c3fcb4b54","french","n",1,4.7549,3,"stimuli/Eb4.wav","stimuli/Eb4.wav","33","Female","French"
"5e34ff524bf4624c3fcb4b54","french","n",1,4.674,6,"stimuli/G4.wav","stimuli/G4.wav","33","Female","French"
"5ed7fdd9e785b62db5350997","English","n",1,4.4842,3,"stimuli/Eb4.wav","stimuli/Eb4.wav","23","Female","French"
"5ed7fdd9e785b62db5350997","English","n",1,4.2182,10,"stimuli/Db4.wav","stimuli/Ab4.wav","23","Female","French"
"5ed7fdd9e785b62db5350997","English","n",1,4.3894,17,"stimuli/C4.wav","stimuli/D4.wav","23","Female","French"
"5ed7fdd9e785b62db5350997","English","n",1,4.1027,0,"stimuli/A4.wav","stimuli/Bb4.wav","23","Female","French"
"5ed7fdd9e785b62db5350997","English","n",1,4.0909,8,"stimuli/Bb4.wav","stimuli/C5.wav","23","Female","French"
"5ed7fdd9e785b62db5350997","English","n",1,4.5157,5,"stimuli/C4.wav","stimuli/F4.wav","23","Female","French"
"5ed7fdd9e785b62db5350997","English","n",1,4.5935,16,"stimuli/G4.wav","stimuli/A4.wav","23","Female","French"
"5ed7fdd9e785b62db5350997","English","n",1,4.1754,11,"stimuli/C4.wav","stimuli/Ab4.wav","23","Female","French"
"5ed7fdd9e785b62db5350997","English","n",1,4.3617,12,"stimuli/A4.wav","stimuli/D4.wav","23","Female","French"
"5ed7fdd9e785b62db5350997","English","n",1,5.3328,1,"stimuli/D4.wav","stimuli/F4.wav","23","Female","French"
"5ed7fdd9e785b62db5350997","English","n",1,4.1524,18,"stimuli/C5.wav","stimuli/C5.wav","23","Female","French"
"5ed7fdd9e785b62db5350997","English","n",1,4.1182,6,"stimuli/G4.wav","stimuli/G4.wav","23","Female","French"
"5ed7fdd9e785b62db5350997","English","n",1,4.4931,2,"stimuli/F4.wav","stimuli/Db4.wav","23","Female","French"
"5ed7fdd9e785b62db5350997","English","n",1,4.0094,9,"stimuli/B4.wav","stimuli/B4.wav","23","Female","French"
"5ed7fdd9e785b62db5350997","English","n",1,4.12,13,"stimuli/F4.wav","stimuli/G4.wav","23","Female","French"
"5ed7fdd9e785b62db5350997","English","n",1,4.0938,15,"stimuli/Eb4.wav","stimuli/Bb4.wav","23","Female","French"
"5ed7fdd9e785b62db5350997","English","n",1,3.9505,7,"stimuli/Bb4.wav","stimuli/Db4.wav","23","Female","French"
"5ed7fdd9e785b62db5350997","English","n",1,3.8752,14,"stimuli/E4.wav","stimuli/B4.wav","23","Female","French"
"5ed7fdd9e785b62db5350997","English","n",1,4.7918,19,"stimuli/Eb4.wav","stimuli/E4.wav","23","Female","French"
"5ed7fdd9e785b62db5350997","English","n",1,6.7038,4,"stimuli/C5.wav","stimuli/Eb4.wav","23","Female","French"
"5eef59b8c506f502aafee922","french","y",1,4.818,16,"stimuli/G4.wav","stimuli/A4.wav","51","Male","French"
"5eef59b8c506f502aafee922","french","y",1,5.158,13,"stimuli/F4.wav","stimuli/G4.wav","51","Male","French"
"5eef59b8c506f502aafee922","french","y",1,5.157,10,"stimuli/Db4.wav","stimuli/Ab4.wav","51","Male","French"
"5eef59b8c506f502aafee922","french","y",1,4.74,6,"stimuli/G4.wav","stimuli/G4.wav","51","Male","French"
"5eef59b8c506f502aafee922","french","y",1,4.39,14,"stimuli/E4.wav","stimuli/B4.wav","51","Male","French"
"5eef59b8c506f502aafee922","french","y",1,4.204,0,"stimuli/A4.wav","stimuli/Bb4.wav","51","Male","French"
"5eef59b8c506f502aafee922","french","y",1,5.08,17,"stimuli/C4.wav","stimuli/D4.wav","51","Male","French"
"5eef59b8c506f502aafee922","french","y",1,4.349,5,"stimuli/C4.wav","stimuli/F4.wav","51","Male","French"
"5eef59b8c506f502aafee922","french","y",1,4.388,11,"stimuli/C4.wav","stimuli/Ab4.wav","51","Male","French"
"5eef59b8c506f502aafee922","french","y",1,4.423,15,"stimuli/Eb4.wav","stimuli/Bb4.wav","51","Male","French"
"5eef59b8c506f502aafee922","french","y",1,4.84,19,"stimuli/Eb4.wav","stimuli/E4.wav","51","Male","French"
"5eef59b8c506f502aafee922","french","y",1,4.943,1,"stimuli/D4.wav","stimuli/F4.wav","51","Male","French"
"5eef59b8c506f502aafee922","french","y",1,4.323,7,"stimuli/Bb4.wav","stimuli/Db4.wav","51","Male","French"
"5eef59b8c506f502aafee922","french","y",1,4.601,9,"stimuli/B4.wav","stimuli/B4.wav","51","Male","French"
"5eef59b8c506f502aafee922","french","y",1,4.007,12,"stimuli/A4.wav","stimuli/D4.wav","51","Male","French"
"5eef59b8c506f502aafee922","french","y",1,4.67,8,"stimuli/Bb4.wav","stimuli/C5.wav","51","Male","French"
"5eef59b8c506f502aafee922","french","y",1,4.44,18,"stimuli/C5.wav","stimuli/C5.wav","51","Male","French"
"5eef59b8c506f502aafee922","french","y",1,4.643,3,"stimuli/Eb4.wav","stimuli/Eb4.wav","51","Male","French"
"5eef59b8c506f502aafee922","french","y",1,4.121,2,"stimuli/F4.wav","stimuli/Db4.wav","51","Male","French"
"5eef59b8c506f502aafee922","french","y",1,4.067,4,"stimuli/C5.wav","stimuli/Eb4.wav","51","Male","French"
"5f2c1e1dc2211406b0e94360","spanish","y",1,5.0205,3,"stimuli/Eb4.wav","stimuli/Eb4.wav","39","Female","French"
"5f2c1e1dc2211406b0e94360","spanish","y",1,4.5008,18,"stimuli/C5.wav","stimuli/C5.wav","39","Female","French"
"5f2c1e1dc2211406b0e94360","spanish","y",1,4.9173,17,"stimuli/C4.wav","stimuli/D4.wav","39","Female","French"
"5f2c1e1dc2211406b0e94360","spanish","y",1,4.1175,8,"stimuli/Bb4.wav","stimuli/C5.wav","39","Female","French"
"5f2c1e1dc2211406b0e94360","spanish","y",1,4.2493,11,"stimuli/C4.wav","stimuli/Ab4.wav","39","Female","French"
"5f2c1e1dc2211406b0e94360","spanish","y",1,4.2288,14,"stimuli/E4.wav","stimuli/B4.wav","39","Female","French"
"5f2c1e1dc2211406b0e94360","spanish","y",1,5.3175,7,"stimuli/Bb4.wav","stimuli/Db4.wav","39","Female","French"
"5f2c1e1dc2211406b0e94360","spanish","y",1,4.567,19,"stimuli/Eb4.wav","stimuli/E4.wav","39","Female","French"
"5f2c1e1dc2211406b0e94360","spanish","y",1,6.3343,12,"stimuli/A4.wav","stimuli/D4.wav","39","Female","French"
"5f2c1e1dc2211406b0e94360","spanish","y",1,4.5848,2,"stimuli/F4.wav","stimuli/Db4.wav","39","Female","French"
"5f2c1e1dc2211406b0e94360","spanish","y",1,4.7104,10,"stimuli/Db4.wav","stimuli/Ab4.wav","39","Female","French"
"5f2c1e1dc2211406b0e94360","spanish","y",1,4.7454,4,"stimuli/C5.wav","stimuli/Eb4.wav","39","Female","French"
"5f2c1e1dc2211406b0e94360","spanish","y",1,4.6217,1,"stimuli/D4.wav","stimuli/F4.wav","39","Female","French"
"5f2c1e1dc2211406b0e94360","spanish","y",1,4.5958,6,"stimuli/G4.wav","stimuli/G4.wav","39","Female","French"
"5f2c1e1dc2211406b0e94360","spanish","y",1,4.4678,5,"stimuli/C4.wav","stimuli/F4.wav","39","Female","French"
"5f2c1e1dc2211406b0e94360","spanish","y",1,4.3348,9,"stimuli/B4.wav","stimuli/B4.wav","39","Female","French"
"5f2c1e1dc2211406b0e94360","spanish","y",1,4.3509,15,"stimuli/Eb4.wav","stimuli/Bb4.wav","39","Female","French"
"5f2c1e1dc2211406b0e94360","spanish","y",1,4.5331,0,"stimuli/A4.wav","stimuli/Bb4.wav","39","Female","French"
"5f2c1e1dc2211406b0e94360","spanish","y",1,4.0996,16,"stimuli/G4.wav","stimuli/A4.wav","39","Female","French"
"5f2c1e1dc2211406b0e94360","spanish","y",1,4.3715,13,"stimuli/F4.wav","stimuli/G4.wav","39","Female","French"
"5f31309d9166bf5c69935045","french","n",1,27.8666,19,"stimuli/Eb4.wav","stimuli/E4.wav","22","Female","French"
"5f31309d9166bf5c69935045","french","n",1,4.791,2,"stimuli/F4.wav","stimuli/Db4.wav","22","Female","French"
"5f31309d9166bf5c69935045","french","n",1,4.4635,18,"stimuli/C5.wav","stimuli/C5.wav","22","Female","French"
"5f31309d9166bf5c69935045","french","n",1,4.2169,4,"stimuli/C5.wav","stimuli/Eb4.wav","22","Female","French"
"5f31309d9166bf5c69935045","french","n",1,4.5435,13,"stimuli/F4.wav","stimuli/G4.wav","22","Female","French"
"5f31309d9166bf5c69935045","french","n",1,4.1212,12,"stimuli/A4.wav","stimuli/D4.wav","22","Female","French"
"5f31309d9166bf5c69935045","french","n",1,4.0505,6,"stimuli/G4.wav","stimuli/G4.wav","22","Female","French"
"5f31309d9166bf5c69935045","french","n",1,5.2876,5,"stimuli/C4.wav","stimuli/F4.wav","22","Female","French"
"5f31309d9166bf5c69935045","french","n",1,4.0747,7,"stimuli/Bb4.wav","stimuli/Db4.wav","22","Female","French"
"5f31309d9166bf5c69935045","french","n",1,4.4219,16,"stimuli/G4.wav","stimuli/A4.wav","22","Female","French"
"5f31309d9166bf5c69935045","french","n",1,4.1506,0,"stimuli/A4.wav","stimuli/Bb4.wav","22","Female","French"
"5f31309d9166bf5c69935045","french","n",1,4.2043,15,"stimuli/Eb4.wav","stimuli/Bb4.wav","22","Female","French"
"5f31309d9166bf5c69935045","french","n",1,3.9767,11,"stimuli/C4.wav","stimuli/Ab4.wav","22","Female","French"
"5f31309d9166bf5c69935045","french","n",1,4.0356,17,"stimuli/C4.wav","stimuli/D4.wav","22","Female","French"
"5f31309d9166bf5c69935045","french","n",1,3.865,1,"stimuli/D4.wav","stimuli/F4.wav","22","Female","French"
"5f31309d9166bf5c69935045","french","n",1,3.9134,8,"stimuli/Bb4.wav","stimuli/C5.wav","22","Female","French"
"5f31309d9166bf5c69935045","french","n",1,4.5163,10,"stimuli/Db4.wav","stimuli/Ab4.wav","22","Female","French"
"5f31309d9166bf5c69935045","french","n",1,4.106,3,"stimuli/Eb4.wav","stimuli/Eb4.wav","22","Female","French"
"5f31309d9166bf5c69935045","french","n",1,3.8357,14,"stimuli/E4.wav","stimuli/B4.wav","22","Female","French"
"5f31309d9166bf5c69935045","french","n",1,4.0835,9,"stimuli/B4.wav","stimuli/B4.wav","22","Female","French"
"5f5bb8b30093333399d6e01f","french","y",1,4.4674,12,"stimuli/A4.wav","stimuli/D4.wav","28","Female","French"
"5f5bb8b30093333399d6e01f","french","y",1,4.3983,19,"stimuli/Eb4.wav","stimuli/E4.wav","28","Female","French"
"5f5bb8b30093333399d6e01f","french","y",1,14.7565,8,"stimuli/Bb4.wav","stimuli/C5.wav","28","Female","French"
"5f5bb8b30093333399d6e01f","french","y",1,14.4765,6,"stimuli/G4.wav","stimuli/G4.wav","28","Female","French"
"5f5bb8b30093333399d6e01f","french","y",1,4.4024,10,"stimuli/Db4.wav","stimuli/Ab4.wav","28","Female","French"
"5f5bb8b30093333399d6e01f","french","y",1,4.3306,5,"stimuli/C4.wav","stimuli/F4.wav","28","Female","French"
"5f5bb8b30093333399d6e01f","french","y",1,4.3243,12,"stimuli/A4.wav","stimuli/D4.wav","28","Female","French"
"5f5bb8b30093333399d6e01f","french","y",1,4.1833,17,"stimuli/C4.wav","stimuli/D4.wav","28","Female","French"
"5f5bb8b30093333399d6e01f","french","y",1,4.2006,0,"stimuli/A4.wav","stimuli/Bb4.wav","28","Female","French"
"5f5bb8b30093333399d6e01f","french","y",1,4.1183,6,"stimuli/G4.wav","stimuli/G4.wav","28","Female","French"
"5f5bb8b30093333399d6e01f","french","y",1,3.9344,1,"stimuli/D4.wav","stimuli/F4.wav","28","Female","French"
"5f5bb8b30093333399d6e01f","french","y",1,3.7666,19,"stimuli/Eb4.wav","stimuli/E4.wav","28","Female","French"
"5f5bb8b30093333399d6e01f","french","y",1,4.0339,11,"stimuli/C4.wav","stimuli/Ab4.wav","28","Female","French"
"5f5bb8b30093333399d6e01f","french","y",1,3.9182,8,"stimuli/Bb4.wav","stimuli/C5.wav","28","Female","French"
"5f5bb8b30093333399d6e01f","french","y",1,4.0334,2,"stimuli/F4.wav","stimuli/Db4.wav","28","Female","French"
"5f5bb8b30093333399d6e01f","french","y",1,3.867,14,"stimuli/E4.wav","stimuli/B4.wav","28","Female","French"
"5f5bb8b30093333399d6e01f","french","y",1,3.8675,16,"stimuli/G4.wav","stimuli/A4.wav","28","Female","French"
"5f5bb8b30093333399d6e01f","french","y",1,3.8512,15,"stimuli/Eb4.wav","stimuli/Bb4.wav","28","Female","French"
"5f5bb8b30093333399d6e01f","french","y",1,3.901,7,"stimuli/Bb4.wav","stimuli/Db4.wav","28","Female","French"
"5f5bb8b30093333399d6e01f","french","y",1,3.7825,9,"stimuli/B4.wav","stimuli/B4.wav","28","Female","French"
"5f5bb8b30093333399d6e01f","french","y",1,3.9505,3,"stimuli/Eb4.wav","stimuli/Eb4.wav","28","Female","French"
"5f5bb8b30093333399d6e01f","french","y",1,3.8012,18,"stimuli/C5.wav","stimuli/C5.wav","28","Female","French"
"5f5bb8b30093333399d6e01f","french","y",1,3.8526,4,"stimuli/C5.wav","stimuli/Eb4.wav","28","Female","French"
"5f5bb8b30093333399d6e01f","french","y",1,4.0838,13,"stimuli/F4.wav","stimuli/G4.wav","28","Female","French"
"5f630ca629b2483ae7572308","Français","n",1,4.6497,6,"stimuli/G4.wav","stimuli/G4.wav","35","Male","French"
"5f630ca629b2483ae7572308","Français","n",1,5.9366,9,"stimuli/B4.wav","stimuli/B4.wav","35","Male","French"
"5f630ca629b2483ae7572308","Français","n",1,4.2508,0,"stimuli/A4.wav","stimuli/Bb4.wav","35","Male","French"
"5f630ca629b2483ae7572308","Français","n",1,4.1839,8,"stimuli/Bb4.wav","stimuli/C5.wav","35","Male","French"
"5f630ca629b2483ae7572308","Français","n",1,4.1994,4,"stimuli/C5.wav","stimuli/Eb4.wav","35","Male","French"
"5f630ca629b2483ae7572308","Français","n",1,4.1504,2,"stimuli/F4.wav","stimuli/Db4.wav","35","Male","French"
"5f630ca629b2483ae7572308","Français","n",1,4.4013,18,"stimuli/C5.wav","stimuli/C5.wav","35","Male","French"
"5f630ca629b2483ae7572308","Français","n",1,5.0345,3,"stimuli/Eb4.wav","stimuli/Eb4.wav","35","Male","French"
"5f630ca629b2483ae7572308","Français","n",1,4.168,17,"stimuli/C4.wav","stimuli/D4.wav","35","Male","French"
"5f630ca629b2483ae7572308","Français","n",1,4.1179,13,"stimuli/F4.wav","stimuli/G4.wav","35","Male","French"
"5f630ca629b2483ae7572308","Français","n",1,4.2178,7,"stimuli/Bb4.wav","stimuli/Db4.wav","35","Male","French"
"5f630ca629b2483ae7572308","Français","n",1,4.1845,19,"stimuli/Eb4.wav","stimuli/E4.wav","35","Male","French"
"5f630ca629b2483ae7572308","Français","n",1,4.2338,15,"stimuli/Eb4.wav","stimuli/Bb4.wav","35","Male","French"
"5f630ca629b2483ae7572308","Français","n",1,4.2175,12,"stimuli/A4.wav","stimuli/D4.wav","35","Male","French"
"5f630ca629b2483ae7572308","Français","n",1,5.2009,16,"stimuli/G4.wav","stimuli/A4.wav","35","Male","French"
"5f630ca629b2483ae7572308","Français","n",1,4.068,14,"stimuli/E4.wav","stimuli/B4.wav","35","Male","French"
"5f630ca629b2483ae7572308","Français","n",1,4.1178,1,"stimuli/D4.wav","stimuli/F4.wav","35","Male","French"
"5f630ca629b2483ae7572308","Français","n",1,4.301,5,"stimuli/C4.wav","stimuli/F4.wav","35","Male","French"
"5f630ca629b2483ae7572308","Français","n",1,4.2675,10,"stimuli/Db4.wav","stimuli/Ab4.wav","35","Male","French"
"5f630ca629b2483ae7572308","Français","n",1,4.5333,11,"stimuli/C4.wav","stimuli/Ab4.wav","35","Male","French"
"5f69bca68bd61e01afde8d9b","French","y",1,4.3339,18,"stimuli/C5.wav","stimuli/C5.wav","31","Male","French"
"5f69bca68bd61e01afde8d9b","French","y",1,4.4211,9,"stimuli/B4.wav","stimuli/B4.wav","31","Male","French"
"5f69bca68bd61e01afde8d9b","French","y",1,4.6116,1,"stimuli/D4.wav","stimuli/F4.wav","31","Male","French"
"5f69bca68bd61e01afde8d9b","French","y",1,3.9689,2,"stimuli/F4.wav","stimuli/Db4.wav","31","Male","French"
"5f69bca68bd61e01afde8d9b","French","y",1,4.0116,15,"stimuli/Eb4.wav","stimuli/Bb4.wav","31","Male","French"
"5f69bca68bd61e01afde8d9b","French","y",1,3.8619,6,"stimuli/G4.wav","stimuli/G4.wav","31","Male","French"
"5f69bca68bd61e01afde8d9b","French","y",1,4.2332,17,"stimuli/C4.wav","stimuli/D4.wav","31","Male","French"
"5f69bca68bd61e01afde8d9b","French","y",1,3.9842,8,"stimuli/Bb4.wav","stimuli/C5.wav","31","Male","French"
"5f69bca68bd61e01afde8d9b","French","y",1,4.3508,0,"stimuli/A4.wav","stimuli/Bb4.wav","31","Male","French"
"5f69bca68bd61e01afde8d9b","French","y",1,4.0014,7,"stimuli/Bb4.wav","stimuli/Db4.wav","31","Male","French"
"5f69bca68bd61e01afde8d9b","French","y",1,3.8348,3,"stimuli/Eb4.wav","stimuli/Eb4.wav","31","Male","French"
"5f69bca68bd61e01afde8d9b","French","y",1,3.9003,4,"stimuli/C5.wav","stimuli/Eb4.wav","31","Male","French"
"5f69bca68bd61e01afde8d9b","French","y",1,3.8843,19,"stimuli/Eb4.wav","stimuli/E4.wav","31","Male","French"
"5f69bca68bd61e01afde8d9b","French","y",1,3.9614,10,"stimuli/Db4.wav","stimuli/Ab4.wav","31","Male","French"
"5f69bca68bd61e01afde8d9b","French","y",1,3.9666,16,"stimuli/G4.wav","stimuli/A4.wav","31","Male","French"
"5f69bca68bd61e01afde8d9b","French","y",1,3.8658,12,"stimuli/A4.wav","stimuli/D4.wav","31","Male","French"
"5f69bca68bd61e01afde8d9b","French","y",1,4.1344,13,"stimuli/F4.wav","stimuli/G4.wav","31","Male","French"
"5f69bca68bd61e01afde8d9b","French","y",1,3.9675,11,"stimuli/C4.wav","stimuli/Ab4.wav","31","Male","French"
"5f69bca68bd61e01afde8d9b","French","y",1,6.5661,5,"stimuli/C4.wav","stimuli/F4.wav","31","Male","French"
"5f69bca68bd61e01afde8d9b","French","y",1,3.983,14,"stimuli/E4.wav","stimuli/B4.wav","31","Male","French"
"5f7446aa98879409f7b6c66c","french","y",1,4.4714,8,"stimuli/Bb4.wav","stimuli/C5.wav","26","Female","French"
"5f7446aa98879409f7b6c66c","french","y",1,4.9875,4,"stimuli/C5.wav","stimuli/Eb4.wav","26","Female","French"
"5f7446aa98879409f7b6c66c","french","y",1,4.3814,2,"stimuli/F4.wav","stimuli/Db4.wav","26","Female","French"
"5f7446aa98879409f7b6c66c","french","y",1,4.5269,15,"stimuli/Eb4.wav","stimuli/Bb4.wav","26","Female","French"
"5f7446aa98879409f7b6c66c","french","y",1,4.8084,17,"stimuli/C4.wav","stimuli/D4.wav","26","Female","French"
"5f7446aa98879409f7b6c66c","french","y",1,4.3336,0,"stimuli/A4.wav","stimuli/Bb4.wav","26","Female","French"
"5f7446aa98879409f7b6c66c","french","y",1,5.4933,5,"stimuli/C4.wav","stimuli/F4.wav","26","Female","French"
"5f7446aa98879409f7b6c66c","french","y",1,4.3014,12,"stimuli/A4.wav","stimuli/D4.wav","26","Female","French"
"5f7446aa98879409f7b6c66c","french","y",1,5.9427,10,"stimuli/Db4.wav","stimuli/Ab4.wav","26","Female","French"
"5f7446aa98879409f7b6c66c","french","y",1,4.4469,11,"stimuli/C4.wav","stimuli/Ab4.wav","26","Female","French"
"5f7446aa98879409f7b6c66c","french","y",1,4.3013,16,"stimuli/G4.wav","stimuli/A4.wav","26","Female","French"
"5f7446aa98879409f7b6c66c","french","y",1,4.1111,7,"stimuli/Bb4.wav","stimuli/Db4.wav","26","Female","French"
"5f7446aa98879409f7b6c66c","french","y",1,4.9544,13,"stimuli/F4.wav","stimuli/G4.wav","26","Female","French"
"5f7446aa98879409f7b6c66c","french","y",1,4.557,3,"stimuli/Eb4.wav","stimuli/Eb4.wav","26","Female","French"
"5f7446aa98879409f7b6c66c","french","y",1,3.9231,14,"stimuli/E4.wav","stimuli/B4.wav","26","Female","French"
"5f7446aa98879409f7b6c66c","french","y",1,4.1691,18,"stimuli/C5.wav","stimuli/C5.wav","26","Female","French"
"5f7446aa98879409f7b6c66c","french","y",1,3.9666,6,"stimuli/G4.wav","stimuli/G4.wav","26","Female","French"
"5f7446aa98879409f7b6c66c","french","y",1,3.789,1,"stimuli/D4.wav","stimuli/F4.wav","26","Female","French"
"5f7446aa98879409f7b6c66c","french","y",1,3.8429,9,"stimuli/B4.wav","stimuli/B4.wav","26","Female","French"
"5f7446aa98879409f7b6c66c","french","y",1,5.9529,19,"stimuli/Eb4.wav","stimuli/E4.wav","26","Female","French"
"5f8cb2004a9a8a119e005984","French","y",1,4.3328,8,"stimuli/Bb4.wav","stimuli/C5.wav","22","Male","French"
"5f8cb2004a9a8a119e005984","French","y",1,4.3632,17,"stimuli/C4.wav","stimuli/D4.wav","22","Male","French"
"5f8cb2004a9a8a119e005984","French","y",1,3.9849,4,"stimuli/C5.wav","stimuli/Eb4.wav","22","Male","French"
"5f8cb2004a9a8a119e005984","French","y",1,4.1434,11,"stimuli/C4.wav","stimuli/Ab4.wav","22","Male","French"
"5f8cb2004a9a8a119e005984","French","y",1,4.3061,6,"stimuli/G4.wav","stimuli/G4.wav","22","Male","French"
"5f8cb2004a9a8a119e005984","French","y",1,3.8502,12,"stimuli/A4.wav","stimuli/D4.wav","22","Male","French"
"5f8cb2004a9a8a119e005984","French","y",1,4.2368,18,"stimuli/C5.wav","stimuli/C5.wav","22","Male","French"
"5f8cb2004a9a8a119e005984","French","y",1,3.7995,14,"stimuli/E4.wav","stimuli/B4.wav","22","Male","French"
"5f8cb2004a9a8a119e005984","French","y",1,3.8074,9,"stimuli/B4.wav","stimuli/B4.wav","22","Male","French"
"5f8cb2004a9a8a119e005984","French","y",1,4.1327,10,"stimuli/Db4.wav","stimuli/Ab4.wav","22","Male","French"
"5f8cb2004a9a8a119e005984","French","y",1,4.1718,5,"stimuli/C4.wav","stimuli/F4.wav","22","Male","French"
"5f8cb2004a9a8a119e005984","French","y",1,4.3582,19,"stimuli/Eb4.wav","stimuli/E4.wav","22","Male","French"
"5f8cb2004a9a8a119e005984","French","y",1,3.908,7,"stimuli/Bb4.wav","stimuli/Db4.wav","22","Male","French"
"5f8cb2004a9a8a119e005984","French","y",1,4.809,16,"stimuli/G4.wav","stimuli/A4.wav","22","Male","French"
"5f8cb2004a9a8a119e005984","French","y",1,4.0556,3,"stimuli/Eb4.wav","stimuli/Eb4.wav","22","Male","French"
"5f8cb2004a9a8a119e005984","French","y",1,4.6422,13,"stimuli/F4.wav","stimuli/G4.wav","22","Male","French"
"5f8cb2004a9a8a119e005984","French","y",1,4.8923,0,"stimuli/A4.wav","stimuli/Bb4.wav","22","Male","French"
"5f8cb2004a9a8a119e005984","French","y",1,3.8004,1,"stimuli/D4.wav","stimuli/F4.wav","22","Male","French"
"5f8cb2004a9a8a119e005984","French","y",1,3.8777,15,"stimuli/Eb4.wav","stimuli/Bb4.wav","22","Male","French"
"5f8cb2004a9a8a119e005984","French","y",1,5.1809,2,"stimuli/F4.wav","stimuli/Db4.wav","22","Male","French"
"5f90c32f69122f1cebd1cc0b","French","n",1,4.4688,19,"stimuli/Eb4.wav","stimuli/E4.wav","56","Male","French"
"5f90c32f69122f1cebd1cc0b","French","n",1,4.4882,2,"stimuli/F4.wav","stimuli/Db4.wav","56","Male","French"
"5f90c32f69122f1cebd1cc0b","French","n",1,4.2655,4,"stimuli/C5.wav","stimuli/Eb4.wav","56","Male","French"
"5f90c32f69122f1cebd1cc0b","French","n",1,4.5977,6,"stimuli/G4.wav","stimuli/G4.wav","56","Male","French"
"5f90c32f69122f1cebd1cc0b","French","n",1,4.1984,17,"stimuli/C4.wav","stimuli/D4.wav","56","Male","French"
"5f90c32f69122f1cebd1cc0b","French","n",1,4.0987,9,"stimuli/B4.wav","stimuli/B4.wav","56","Male","French"
"5f90c32f69122f1cebd1cc0b","French","n",1,4.2161,10,"stimuli/Db4.wav","stimuli/Ab4.wav","56","Male","French"
"5f90c32f69122f1cebd1cc0b","French","n",1,4.0867,15,"stimuli/Eb4.wav","stimuli/Bb4.wav","56","Male","French"
"5f90c32f69122f1cebd1cc0b","French","n",1,4.5818,8,"stimuli/Bb4.wav","stimuli/C5.wav","56","Male","French"
"5f90c32f69122f1cebd1cc0b","French","n",1,4.2661,1,"stimuli/D4.wav","stimuli/F4.wav","56","Male","French"
"5f90c32f69122f1cebd1cc0b","French","n",1,3.9671,7,"stimuli/Bb4.wav","stimuli/Db4.wav","56","Male","French"
"5f90c32f69122f1cebd1cc0b","French","n",1,4.784,16,"stimuli/G4.wav","stimuli/A4.wav","56","Male","French"
"5f90c32f69122f1cebd1cc0b","French","n",1,4.0671,11,"stimuli/C4.wav","stimuli/Ab4.wav","56","Male","French"
"5f90c32f69122f1cebd1cc0b","French","n",1,4.572,13,"stimuli/F4.wav","stimuli/G4.wav","56","Male","French"
"5f90c32f69122f1cebd1cc0b","French","n",1,4.41,18,"stimuli/C5.wav","stimuli/C5.wav","56","Male","French"
"5f90c32f69122f1cebd1cc0b","French","n",1,4.0506,0,"stimuli/A4.wav","stimuli/Bb4.wav","56","Male","French"
"5f90c32f69122f1cebd1cc0b","French","n",1,4.3008,5,"stimuli/C4.wav","stimuli/F4.wav","56","Male","French"
"5f90c32f69122f1cebd1cc0b","French","n",1,4.0168,12,"stimuli/A4.wav","stimuli/D4.wav","56","Male","French"
"5f90c32f69122f1cebd1cc0b","French","n",1,4.3676,3,"stimuli/Eb4.wav","stimuli/Eb4.wav","56","Male","French"
"5f90c32f69122f1cebd1cc0b","French","n",1,4.051,14,"stimuli/E4.wav","stimuli/B4.wav","56","Male","French"
"5f9405e45b97f81ee65b4d24","French","n",1,4.5322,1,"stimuli/D4.wav","stimuli/F4.wav","24","Female","French"
"5f9405e45b97f81ee65b4d24","French","n",1,4.4884,4,"stimuli/C5.wav","stimuli/Eb4.wav","24","Female","French"
"5f9405e45b97f81ee65b4d24","French","n",1,4.4856,12,"stimuli/A4.wav","stimuli/D4.wav","24","Female","French"
"5f9405e45b97f81ee65b4d24","French","n",1,5.2109,15,"stimuli/Eb4.wav","stimuli/Bb4.wav","24","Female","French"
"5f9405e45b97f81ee65b4d24","French","n",1,4.301,3,"stimuli/Eb4.wav","stimuli/Eb4.wav","24","Female","French"
"5f9405e45b97f81ee65b4d24","French","n",1,4.453,6,"stimuli/G4.wav","stimuli/G4.wav","24","Female","French"
"5f9405e45b97f81ee65b4d24","French","n",1,4.4844,5,"stimuli/C4.wav","stimuli/F4.wav","24","Female","French"
"5f9405e45b97f81ee65b4d24","French","n",1,5.1687,11,"stimuli/C4.wav","stimuli/Ab4.wav","24","Female","French"
"5f9405e45b97f81ee65b4d24","French","n",1,4.3032,9,"stimuli/B4.wav","stimuli/B4.wav","24","Female","French"
"5f9405e45b97f81ee65b4d24","French","n",1,4.3031,10,"stimuli/Db4.wav","stimuli/Ab4.wav","24","Female","French"
"5f9405e45b97f81ee65b4d24","French","n",1,4.5046,0,"stimuli/A4.wav","stimuli/Bb4.wav","24","Female","French"
"5f9405e45b97f81ee65b4d24","French","n",1,4.4219,2,"stimuli/F4.wav","stimuli/Db4.wav","24","Female","French"
"5f9405e45b97f81ee65b4d24","French","n",1,4.2495,18,"stimuli/C5.wav","stimuli/C5.wav","24","Female","French"
"5f9405e45b97f81ee65b4d24","French","n",1,4.1702,7,"stimuli/Bb4.wav","stimuli/Db4.wav","24","Female","French"
"5f9405e45b97f81ee65b4d24","French","n",1,4.218,14,"stimuli/E4.wav","stimuli/B4.wav","24","Female","French"
"5f9405e45b97f81ee65b4d24","French","n",1,4.4167,19,"stimuli/Eb4.wav","stimuli/E4.wav","24","Female","French"
"5f9405e45b97f81ee65b4d24","French","n",1,4.5036,13,"stimuli/F4.wav","stimuli/G4.wav","24","Female","French"
"5f9405e45b97f81ee65b4d24","French","n",1,6.6378,16,"stimuli/G4.wav","stimuli/A4.wav","24","Female","French"
"5f9405e45b97f81ee65b4d24","French","n",1,4.3018,8,"stimuli/Bb4.wav","stimuli/C5.wav","24","Female","French"
"5f9405e45b97f81ee65b4d24","French","n",1,4.6763,17,"stimuli/C4.wav","stimuli/D4.wav","24","Female","French"
"5fae7413f4e32e31ed12a99b","French","n",1,4.9007,1,"stimuli/D4.wav","stimuli/F4.wav","23","Female","French"
"5fae7413f4e32e31ed12a99b","French","n",1,4.5228,10,"stimuli/Db4.wav","stimuli/Ab4.wav","23","Female","French"
"5fae7413f4e32e31ed12a99b","French","n",1,4.310099999,16,"stimuli/G4.wav","stimuli/A4.wav","23","Female","French"
"5fae7413f4e32e31ed12a99b","French","n",1,4.3838,7,"stimuli/Bb4.wav","stimuli/Db4.wav","23","Female","French"
"5fae7413f4e32e31ed12a99b","French","n",1,4.388299999,17,"stimuli/C4.wav","stimuli/D4.wav","23","Female","French"
"5fae7413f4e32e31ed12a99b","French","n",1,4.4678,9,"stimuli/B4.wav","stimuli/B4.wav","23","Female","French"
"5fae7413f4e32e31ed12a99b","French","n",1,3.9553,5,"stimuli/C4.wav","stimuli/F4.wav","23","Female","French"
"5fae7413f4e32e31ed12a99b","French","n",1,4.2019,11,"stimuli/C4.wav","stimuli/Ab4.wav","23","Female","French"
"5fae7413f4e32e31ed12a99b","French","n",1,4.1039,12,"stimuli/A4.wav","stimuli/D4.wav","23","Female","French"
"5fae7413f4e32e31ed12a99b","French","n",1,4.4,8,"stimuli/Bb4.wav","stimuli/C5.wav","23","Female","French"
"5fae7413f4e32e31ed12a99b","French","n",1,4.12,18,"stimuli/C5.wav","stimuli/C5.wav","23","Female","French"
"5fae7413f4e32e31ed12a99b","French","n",1,4.0759,0,"stimuli/A4.wav","stimuli/Bb4.wav","23","Female","French"
"5fae7413f4e32e31ed12a99b","French","n",1,4.020900001,15,"stimuli/Eb4.wav","stimuli/Bb4.wav","23","Female","French"
"5fae7413f4e32e31ed12a99b","French","n",1,4.233299999,6,"stimuli/G4.wav","stimuli/G4.wav","23","Female","French"
"5fae7413f4e32e31ed12a99b","French","n",1,4.1533,3,"stimuli/Eb4.wav","stimuli/Eb4.wav","23","Female","French"
"5fae7413f4e32e31ed12a99b","French","n",1,3.936200001,14,"stimuli/E4.wav","stimuli/B4.wav","23","Female","French"
"5fae7413f4e32e31ed12a99b","French","n",1,4.3678,19,"stimuli/Eb4.wav","stimuli/E4.wav","23","Female","French"
"5fae7413f4e32e31ed12a99b","French","n",1,3.8209,13,"stimuli/F4.wav","stimuli/G4.wav","23","Female","French"
"5fae7413f4e32e31ed12a99b","French","n",1,4.0264,2,"stimuli/F4.wav","stimuli/Db4.wav","23","Female","French"
"5fae7413f4e32e31ed12a99b","French","n",1,4.0543,4,"stimuli/C5.wav","stimuli/Eb4.wav","23","Female","French"
"60343be3cf15a50a9268b4b4","FRENCH","n",1,4.1118,15,"stimuli/Eb4.wav","stimuli/Bb4.wav","25","Male","French"
"60343be3cf15a50a9268b4b4","FRENCH","n",1,4.5133,8,"stimuli/Bb4.wav","stimuli/C5.wav","25","Male","French"
"60343be3cf15a50a9268b4b4","FRENCH","n",1,5.2784,4,"stimuli/C5.wav","stimuli/Eb4.wav","25","Male","French"
"60343be3cf15a50a9268b4b4","FRENCH","n",1,4.7026,19,"stimuli/Eb4.wav","stimuli/E4.wav","25","Male","French"
"60343be3cf15a50a9268b4b4","FRENCH","n",1,3.9672,5,"stimuli/C4.wav","stimuli/F4.wav","25","Male","French"
"60343be3cf15a50a9268b4b4","FRENCH","n",1,5.397,0,"stimuli/A4.wav","stimuli/Bb4.wav","25","Male","French"
"60343be3cf15a50a9268b4b4","FRENCH","n",1,5.1135,13,"stimuli/F4.wav","stimuli/G4.wav","25","Male","French"
"60343be3cf15a50a9268b4b4","FRENCH","n",1,4.0586,18,"stimuli/C5.wav","stimuli/C5.wav","25","Male","French"
"60343be3cf15a50a9268b4b4","FRENCH","n",1,4.2628,9,"stimuli/B4.wav","stimuli/B4.wav","25","Male","French"
"60343be3cf15a50a9268b4b4","FRENCH","n",1,4.0959,17,"stimuli/C4.wav","stimuli/D4.wav","25","Male","French"
"60343be3cf15a50a9268b4b4","FRENCH","n",1,3.9174,2,"stimuli/F4.wav","stimuli/Db4.wav","25","Male","French"
"60343be3cf15a50a9268b4b4","FRENCH","n",1,3.9807,7,"stimuli/Bb4.wav","stimuli/Db4.wav","25","Male","French"
"60343be3cf15a50a9268b4b4","FRENCH","n",1,3.981,16,"stimuli/G4.wav","stimuli/A4.wav","25","Male","French"
"60343be3cf15a50a9268b4b4","FRENCH","n",1,3.8632,11,"stimuli/C4.wav","stimuli/Ab4.wav","25","Male","French"
"60343be3cf15a50a9268b4b4","FRENCH","n",1,3.9501,10,"stimuli/Db4.wav","stimuli/Ab4.wav","25","Male","French"
"60343be3cf15a50a9268b4b4","FRENCH","n",1,4.2788,6,"stimuli/G4.wav","stimuli/G4.wav","25","Male","French"
"60343be3cf15a50a9268b4b4","FRENCH","n",1,4.2954,3,"stimuli/Eb4.wav","stimuli/Eb4.wav","25","Male","French"
"60343be3cf15a50a9268b4b4","FRENCH","n",1,5.0354,1,"stimuli/D4.wav","stimuli/F4.wav","25","Male","French"
"60343be3cf15a50a9268b4b4","FRENCH","n",1,3.7429,12,"stimuli/A4.wav","stimuli/D4.wav","25","Male","French"
"60343be3cf15a50a9268b4b4","FRENCH","n",1,3.9127,14,"stimuli/E4.wav","stimuli/B4.wav","25","Male","French"
"6078372e6e3075a6d763f5da","French","n",1,3.8634,16,"stimuli/G4.wav","stimuli/A4.wav","35","Female","French"
"6078372e6e3075a6d763f5da","French","n",1,4.1683,14,"stimuli/E4.wav","stimuli/B4.wav","35","Female","French"
"6078372e6e3075a6d763f5da","French","n",1,3.8582,8,"stimuli/Bb4.wav","stimuli/C5.wav","35","Female","French"
"6078372e6e3075a6d763f5da","French","n",1,5.5699,15,"stimuli/Eb4.wav","stimuli/Bb4.wav","35","Female","French"
"6078372e6e3075a6d763f5da","French","n",1,4.3849,9,"stimuli/B4.wav","stimuli/B4.wav","35","Female","French"
"6078372e6e3075a6d763f5da","French","n",1,3.9431,13,"stimuli/F4.wav","stimuli/G4.wav","35","Female","French"
"6078372e6e3075a6d763f5da","French","n",1,5.3064,1,"stimuli/D4.wav","stimuli/F4.wav","35","Female","French"
"6078372e6e3075a6d763f5da","French","n",1,4.3439,18,"stimuli/C5.wav","stimuli/C5.wav","35","Female","French"
"6078372e6e3075a6d763f5da","French","n",1,4.5791,17,"stimuli/C4.wav","stimuli/D4.wav","35","Female","French"
"6078372e6e3075a6d763f5da","French","n",1,4.3437,4,"stimuli/C5.wav","stimuli/Eb4.wav","35","Female","French"
"6078372e6e3075a6d763f5da","French","n",1,4.0822,6,"stimuli/G4.wav","stimuli/G4.wav","35","Female","French"
"6078372e6e3075a6d763f5da","French","n",1,4.4858,12,"stimuli/A4.wav","stimuli/D4.wav","35","Female","French"
"6078372e6e3075a6d763f5da","French","n",1,3.8689,7,"stimuli/Bb4.wav","stimuli/Db4.wav","35","Female","French"
"6078372e6e3075a6d763f5da","French","n",1,3.8871,0,"stimuli/A4.wav","stimuli/Bb4.wav","35","Female","French"
"6078372e6e3075a6d763f5da","French","n",1,4.0528,2,"stimuli/F4.wav","stimuli/Db4.wav","35","Female","French"
"6078372e6e3075a6d763f5da","French","n",1,4.6343,11,"stimuli/C4.wav","stimuli/Ab4.wav","35","Female","French"
"6078372e6e3075a6d763f5da","French","n",1,4.0691,10,"stimuli/Db4.wav","stimuli/Ab4.wav","35","Female","French"
"6078372e6e3075a6d763f5da","French","n",1,4.566,3,"stimuli/Eb4.wav","stimuli/Eb4.wav","35","Female","French"
"6078372e6e3075a6d763f5da","French","n",1,4.4509,19,"stimuli/Eb4.wav","stimuli/E4.wav","35","Female","French"
"6078372e6e3075a6d763f5da","French","n",1,4.2683,5,"stimuli/C4.wav","stimuli/F4.wav","35","Female","French"
"60827e52a046c9b82574d391","French","y",1,4.5212,17,"stimuli/C4.wav","stimuli/D4.wav","31","Male","French"
"60827e52a046c9b82574d391","French","y",1,4.7001,6,"stimuli/G4.wav","stimuli/G4.wav","31","Male","French"
"60827e52a046c9b82574d391","French","y",1,5.2367,11,"stimuli/C4.wav","stimuli/Ab4.wav","31","Male","French"
"60827e52a046c9b82574d391","French","y",1,4.5057,14,"stimuli/E4.wav","stimuli/B4.wav","31","Male","French"
"60827e52a046c9b82574d391","French","y",1,4.6174,2,"stimuli/F4.wav","stimuli/Db4.wav","31","Male","French"
"60827e52a046c9b82574d391","French","y",1,4.5047,4,"stimuli/C5.wav","stimuli/Eb4.wav","31","Male","French"
"60827e52a046c9b82574d391","French","y",1,4.5885,3,"stimuli/Eb4.wav","stimuli/Eb4.wav","31","Male","French"
"60827e52a046c9b82574d391","French","y",1,4.5653,13,"stimuli/F4.wav","stimuli/G4.wav","31","Male","French"
"60827e52a046c9b82574d391","French","y",1,4.649,7,"stimuli/Bb4.wav","stimuli/Db4.wav","31","Male","French"
"60827e52a046c9b82574d391","French","y",1,4.607,19,"stimuli/Eb4.wav","stimuli/E4.wav","31","Male","French"
"60827e52a046c9b82574d391","French","y",1,4.7175,0,"stimuli/A4.wav","stimuli/Bb4.wav","31","Male","French"
"60827e52a046c9b82574d391","French","y",1,4.756,10,"stimuli/Db4.wav","stimuli/Ab4.wav","31","Male","French"
"60827e52a046c9b82574d391","French","y",1,5.018,9,"stimuli/B4.wav","stimuli/B4.wav","31","Male","French"
"60827e52a046c9b82574d391","French","y",1,5.191,15,"stimuli/Eb4.wav","stimuli/Bb4.wav","31","Male","French"
"60827e52a046c9b82574d391","French","y",1,4.6137,12,"stimuli/A4.wav","stimuli/D4.wav","31","Male","French"
"60827e52a046c9b82574d391","French","y",1,4.8071,1,"stimuli/D4.wav","stimuli/F4.wav","31","Male","French"
"60827e52a046c9b82574d391","French","y",1,4.7184,8,"stimuli/Bb4.wav","stimuli/C5.wav","31","Male","French"
"60827e52a046c9b82574d391","French","y",1,4.6661,18,"stimuli/C5.wav","stimuli/C5.wav","31","Male","French"
"60827e52a046c9b82574d391","French","y",1,5.014,5,"stimuli/C4.wav","stimuli/F4.wav","31","Male","French"
"60827e52a046c9b82574d391","French","y",1,4.6352,16,"stimuli/G4.wav","stimuli/A4.wav","31","Male","French"
"6089cd0a1c1541c29bb34c73","ENGLISH","n",1,7.8464,15,"stimuli/Eb4.wav","stimuli/Bb4.wav","33","Male","French"
"6089cd0a1c1541c29bb34c73","ENGLISH","n",1,4.6531,8,"stimuli/Bb4.wav","stimuli/C5.wav","33","Male","French"
"6089cd0a1c1541c29bb34c73","ENGLISH","n",1,4.7983,4,"stimuli/C5.wav","stimuli/Eb4.wav","33","Male","French"
"6089cd0a1c1541c29bb34c73","ENGLISH","n",1,5.0321,2,"stimuli/F4.wav","stimuli/Db4.wav","33","Male","French"
"6089cd0a1c1541c29bb34c73","ENGLISH","n",1,6.5774,12,"stimuli/A4.wav","stimuli/D4.wav","33","Male","French"
"6089cd0a1c1541c29bb34c73","ENGLISH","n",1,6.1459,0,"stimuli/A4.wav","stimuli/Bb4.wav","33","Male","French"
"6089cd0a1c1541c29bb34c73","ENGLISH","n",1,8.4164,9,"stimuli/B4.wav","stimuli/B4.wav","33","Male","French"
"6089cd0a1c1541c29bb34c73","ENGLISH","n",1,6.0632,5,"stimuli/C4.wav","stimuli/F4.wav","33","Male","French"
"6089cd0a1c1541c29bb34c73","ENGLISH","n",1,6.0804,16,"stimuli/G4.wav","stimuli/A4.wav","33","Male","French"
"6089cd0a1c1541c29bb34c73","ENGLISH","n",1,6.063,1,"stimuli/D4.wav","stimuli/F4.wav","33","Male","French"
"6089cd0a1c1541c29bb34c73","ENGLISH","n",1,5.8334,14,"stimuli/E4.wav","stimuli/B4.wav","33","Male","French"
"6089cd0a1c1541c29bb34c73","ENGLISH","n",1,5.081,18,"stimuli/C5.wav","stimuli/C5.wav","33","Male","French"
"6089cd0a1c1541c29bb34c73","ENGLISH","n",1,5.2614,11,"stimuli/C4.wav","stimuli/Ab4.wav","33","Male","French"
"6089cd0a1c1541c29bb34c73","ENGLISH","n",1,4.7044,6,"stimuli/G4.wav","stimuli/G4.wav","33","Male","French"
"6089cd0a1c1541c29bb34c73","ENGLISH","n",1,5.3153,7,"stimuli/Bb4.wav","stimuli/Db4.wav","33","Male","French"
"6089cd0a1c1541c29bb34c73","ENGLISH","n",1,5.9617,17,"stimuli/C4.wav","stimuli/D4.wav","33","Male","French"
"6089cd0a1c1541c29bb34c73","ENGLISH","n",1,5.866,10,"stimuli/Db4.wav","stimuli/Ab4.wav","33","Male","French"
"6089cd0a1c1541c29bb34c73","ENGLISH","n",1,4.9473,19,"stimuli/Eb4.wav","stimuli/E4.wav","33","Male","French"
"6089cd0a1c1541c29bb34c73","ENGLISH","n",1,5.5619,3,"stimuli/Eb4.wav","stimuli/Eb4.wav","33","Male","French"
"6089cd0a1c1541c29bb34c73","ENGLISH","n",1,7.1951,13,"stimuli/F4.wav","stimuli/G4.wav","33","Male","French"
"609436e99d401bc27b1ebe9a","French","n",1,4.6749,14,"stimuli/E4.wav","stimuli/B4.wav","33","Male","French"
"609436e99d401bc27b1ebe9a","French","n",1,4.2326,5,"stimuli/C4.wav","stimuli/F4.wav","33","Male","French"
"609436e99d401bc27b1ebe9a","French","n",1,4.3849,3,"stimuli/Eb4.wav","stimuli/Eb4.wav","33","Male","French"
"609436e99d401bc27b1ebe9a","French","n",1,4.0093,15,"stimuli/Eb4.wav","stimuli/Bb4.wav","33","Male","French"
"609436e99d401bc27b1ebe9a","French","n",1,4.0392,17,"stimuli/C4.wav","stimuli/D4.wav","33","Male","French"
"609436e99d401bc27b1ebe9a","French","n",1,4.4671,6,"stimuli/G4.wav","stimuli/G4.wav","33","Male","French"
"609436e99d401bc27b1ebe9a","French","n",1,4.8394,9,"stimuli/B4.wav","stimuli/B4.wav","33","Male","French"
"609436e99d401bc27b1ebe9a","French","n",1,4.382,10,"stimuli/Db4.wav","stimuli/Ab4.wav","33","Male","French"
"609436e99d401bc27b1ebe9a","French","n",1,4.1258,1,"stimuli/D4.wav","stimuli/F4.wav","33","Male","French"
"609436e99d401bc27b1ebe9a","French","n",1,4.0254,8,"stimuli/Bb4.wav","stimuli/C5.wav","33","Male","French"
"609436e99d401bc27b1ebe9a","French","n",1,4.1171,2,"stimuli/F4.wav","stimuli/Db4.wav","33","Male","French"
"609436e99d401bc27b1ebe9a","French","n",1,4.0511,0,"stimuli/A4.wav","stimuli/Bb4.wav","33","Male","French"
"609436e99d401bc27b1ebe9a","French","n",1,4.3753,18,"stimuli/C5.wav","stimuli/C5.wav","33","Male","French"
"609436e99d401bc27b1ebe9a","French","n",1,4.1265,7,"stimuli/Bb4.wav","stimuli/Db4.wav","33","Male","French"
"609436e99d401bc27b1ebe9a","French","n",1,3.9253,4,"stimuli/C5.wav","stimuli/Eb4.wav","33","Male","French"
"609436e99d401bc27b1ebe9a","French","n",1,3.9924,16,"stimuli/G4.wav","stimuli/A4.wav","33","Male","French"
"609436e99d401bc27b1ebe9a","French","n",1,4.0758,11,"stimuli/C4.wav","stimuli/Ab4.wav","33","Male","French"
"609436e99d401bc27b1ebe9a","French","n",1,3.7246,12,"stimuli/A4.wav","stimuli/D4.wav","33","Male","French"
"609436e99d401bc27b1ebe9a","French","n",1,3.9506,19,"stimuli/Eb4.wav","stimuli/E4.wav","33","Male","French"
"609436e99d401bc27b1ebe9a","French","n",1,4.0505,13,"stimuli/F4.wav","stimuli/G4.wav","33","Male","French"
"61018f718a8e893a7b3627e3","French","y",1,4.5712,3,"stimuli/Eb4.wav","stimuli/Eb4.wav","23","Female","French"
"61018f718a8e893a7b3627e3","French","y",1,4.1814,4,"stimuli/C5.wav","stimuli/Eb4.wav","23","Female","French"
"61018f718a8e893a7b3627e3","French","y",1,4.3651,2,"stimuli/F4.wav","stimuli/Db4.wav","23","Female","French"
"61018f718a8e893a7b3627e3","French","y",1,4.1876,6,"stimuli/G4.wav","stimuli/G4.wav","23","Female","French"
"61018f718a8e893a7b3627e3","French","y",1,4.2223,8,"stimuli/Bb4.wav","stimuli/C5.wav","23","Female","French"
"61018f718a8e893a7b3627e3","French","y",1,4.2848,19,"stimuli/Eb4.wav","stimuli/E4.wav","23","Female","French"
"61018f718a8e893a7b3627e3","French","y",1,4.4841,7,"stimuli/Bb4.wav","stimuli/Db4.wav","23","Female","French"
"61018f718a8e893a7b3627e3","French","y",1,4.3842,17,"stimuli/C4.wav","stimuli/D4.wav","23","Female","French"
"61018f718a8e893a7b3627e3","French","y",1,4.1489,16,"stimuli/G4.wav","stimuli/A4.wav","23","Female","French"
"61018f718a8e893a7b3627e3","French","y",1,4.2076,13,"stimuli/F4.wav","stimuli/G4.wav","23","Female","French"
"61018f718a8e893a7b3627e3","French","y",1,4.2683,1,"stimuli/D4.wav","stimuli/F4.wav","23","Female","French"
"61018f718a8e893a7b3627e3","French","y",1,4.6839,14,"stimuli/E4.wav","stimuli/B4.wav","23","Female","French"
"61018f718a8e893a7b3627e3","French","y",1,4.3636,9,"stimuli/B4.wav","stimuli/B4.wav","23","Female","French"
"61018f718a8e893a7b3627e3","French","y",1,4.8014,18,"stimuli/C5.wav","stimuli/C5.wav","23","Female","French"
"61018f718a8e893a7b3627e3","French","y",1,3.8817,10,"stimuli/Db4.wav","stimuli/Ab4.wav","23","Female","French"
"61018f718a8e893a7b3627e3","French","y",1,4.1829,12,"stimuli/A4.wav","stimuli/D4.wav","23","Female","French"
"61018f718a8e893a7b3627e3","French","y",1,4.2644,15,"stimuli/Eb4.wav","stimuli/Bb4.wav","23","Female","French"
"61018f718a8e893a7b3627e3","French","y",1,4.1146,11,"stimuli/C4.wav","stimuli/Ab4.wav","23","Female","French"
"61018f718a8e893a7b3627e3","French","y",1,4.5076,0,"stimuli/A4.wav","stimuli/Bb4.wav","23","Female","French"
"61018f718a8e893a7b3627e3","French","y",1,4.1795,5,"stimuli/C4.wav","stimuli/F4.wav","23","Female","French"
"610d671491693e4ff410860c","French","n",1,4.468,18,"stimuli/C5.wav","stimuli/C5.wav","36","Male","French"
"610d671491693e4ff410860c","French","n",1,4.386,3,"stimuli/Eb4.wav","stimuli/Eb4.wav","36","Male","French"
"610d671491693e4ff410860c","French","n",1,4.119,2,"stimuli/F4.wav","stimuli/Db4.wav","36","Male","French"
"610d671491693e4ff410860c","French","n",1,4.202,1,"stimuli/D4.wav","stimuli/F4.wav","36","Male","French"
"610d671491693e4ff410860c","French","n",1,4.215,14,"stimuli/E4.wav","stimuli/B4.wav","36","Male","French"
"610d671491693e4ff410860c","French","n",1,3.953,6,"stimuli/G4.wav","stimuli/G4.wav","36","Male","French"
"610d671491693e4ff410860c","French","n",1,3.986,7,"stimuli/Bb4.wav","stimuli/Db4.wav","36","Male","French"
"610d671491693e4ff410860c","French","n",1,4.004,12,"stimuli/A4.wav","stimuli/D4.wav","36","Male","French"
"610d671491693e4ff410860c","French","n",1,3.955,17,"stimuli/C4.wav","stimuli/D4.wav","36","Male","French"
"610d671491693e4ff410860c","French","n",1,3.787,4,"stimuli/C5.wav","stimuli/Eb4.wav","36","Male","French"
"610d671491693e4ff410860c","French","n",1,3.821,11,"stimuli/C4.wav","stimuli/Ab4.wav","36","Male","French"
"610d671491693e4ff410860c","French","n",1,4.032,15,"stimuli/Eb4.wav","stimuli/Bb4.wav","36","Male","French"
"610d671491693e4ff410860c","French","n",1,3.79,10,"stimuli/Db4.wav","stimuli/Ab4.wav","36","Male","French"
"610d671491693e4ff410860c","French","n",1,3.951,8,"stimuli/Bb4.wav","stimuli/C5.wav","36","Male","French"
"610d671491693e4ff410860c","French","n",1,3.816,13,"stimuli/F4.wav","stimuli/G4.wav","36","Male","French"
"610d671491693e4ff410860c","French","n",1,3.967,5,"stimuli/C4.wav","stimuli/F4.wav","36","Male","French"
"610d671491693e4ff410860c","French","n",1,3.902,9,"stimuli/B4.wav","stimuli/B4.wav","36","Male","French"
"610d671491693e4ff410860c","French","n",1,4.067,16,"stimuli/G4.wav","stimuli/A4.wav","36","Male","French"
"610d671491693e4ff410860c","French","n",1,3.935,0,"stimuli/A4.wav","stimuli/Bb4.wav","36","Male","French"
"610d671491693e4ff410860c","French","n",1,3.905,19,"stimuli/Eb4.wav","stimuli/E4.wav","36","Male","French"
"613334cf5293abe84a78239c","French","n",1,5.7503,17,"stimuli/C4.wav","stimuli/D4.wav","35","Male","French"
"613334cf5293abe84a78239c","French","n",1,4.6798,11,"stimuli/C4.wav","stimuli/Ab4.wav","35","Male","French"
"613334cf5293abe84a78239c","French","n",1,4.7339,9,"stimuli/B4.wav","stimuli/B4.wav","35","Male","French"
"613334cf5293abe84a78239c","French","n",1,4.5504,3,"stimuli/Eb4.wav","stimuli/Eb4.wav","35","Male","French"
"613334cf5293abe84a78239c","French","n",1,4.5172,4,"stimuli/C5.wav","stimuli/Eb4.wav","35","Male","French"
"613334cf5293abe84a78239c","French","n",1,4.2808,19,"stimuli/Eb4.wav","stimuli/E4.wav","35","Male","French"
"613334cf5293abe84a78239c","French","n",1,4.8501,1,"stimuli/D4.wav","stimuli/F4.wav","35","Male","French"
"613334cf5293abe84a78239c","French","n",1,4.224,14,"stimuli/E4.wav","stimuli/B4.wav","35","Male","French"
"613334cf5293abe84a78239c","French","n",1,4.5359,0,"stimuli/A4.wav","stimuli/Bb4.wav","35","Male","French"
"613334cf5293abe84a78239c","French","n",1,4.4673,15,"stimuli/Eb4.wav","stimuli/Bb4.wav","35","Male","French"
"613334cf5293abe84a78239c","French","n",1,4.3167,7,"stimuli/Bb4.wav","stimuli/Db4.wav","35","Male","French"
"613334cf5293abe84a78239c","French","n",1,5.198,13,"stimuli/F4.wav","stimuli/G4.wav","35","Male","French"
"613334cf5293abe84a78239c","French","n",1,4.2532,2,"stimuli/F4.wav","stimuli/Db4.wav","35","Male","French"
"613334cf5293abe84a78239c","French","n",1,4.1474,10,"stimuli/Db4.wav","stimuli/Ab4.wav","35","Male","French"
"613334cf5293abe84a78239c","French","n",1,4.124,5,"stimuli/C4.wav","stimuli/F4.wav","35","Male","French"
"613334cf5293abe84a78239c","French","n",1,4.331,12,"stimuli/A4.wav","stimuli/D4.wav","35","Male","French"
"613334cf5293abe84a78239c","French","n",1,4.0675,8,"stimuli/Bb4.wav","stimuli/C5.wav","35","Male","French"
"613334cf5293abe84a78239c","French","n",1,4.2479,18,"stimuli/C5.wav","stimuli/C5.wav","35","Male","French"
"613334cf5293abe84a78239c","French","n",1,4.1587,6,"stimuli/G4.wav","stimuli/G4.wav","35","Male","French"
"613334cf5293abe84a78239c","French","n",1,4.0325,16,"stimuli/G4.wav","stimuli/A4.wav","35","Male","French"
"61519988b1ae1bd33e03675a","French","n",1,4.6379,0,"stimuli/A4.wav","stimuli/Bb4.wav","26","Male","French"
"61519988b1ae1bd33e03675a","French","n",1,4.3328,10,"stimuli/Db4.wav","stimuli/Ab4.wav","26","Male","French"
"61519988b1ae1bd33e03675a","French","n",1,4.4835,18,"stimuli/C5.wav","stimuli/C5.wav","26","Male","French"
"61519988b1ae1bd33e03675a","French","n",1,4.1587,7,"stimuli/Bb4.wav","stimuli/Db4.wav","26","Male","French"
"61519988b1ae1bd33e03675a","French","n",1,4.1537,17,"stimuli/C4.wav","stimuli/D4.wav","26","Male","French"
"61519988b1ae1bd33e03675a","French","n",1,4.1885,15,"stimuli/Eb4.wav","stimuli/Bb4.wav","26","Male","French"
"61519988b1ae1bd33e03675a","French","n",1,4.247,9,"stimuli/B4.wav","stimuli/B4.wav","26","Male","French"
"61519988b1ae1bd33e03675a","French","n",1,4.0696,8,"stimuli/Bb4.wav","stimuli/C5.wav","26","Male","French"
"61519988b1ae1bd33e03675a","French","n",1,4.1633,16,"stimuli/G4.wav","stimuli/A4.wav","26","Male","French"
"61519988b1ae1bd33e03675a","French","n",1,4.135,1,"stimuli/D4.wav","stimuli/F4.wav","26","Male","French"
"61519988b1ae1bd33e03675a","French","n",1,4.1707,5,"stimuli/C4.wav","stimuli/F4.wav","26","Male","French"
"61519988b1ae1bd33e03675a","French","n",1,4.2426,14,"stimuli/E4.wav","stimuli/B4.wav","26","Male","French"
"61519988b1ae1bd33e03675a","French","n",1,4.0339,4,"stimuli/C5.wav","stimuli/Eb4.wav","26","Male","French"
"61519988b1ae1bd33e03675a","French","n",1,4.1036,2,"stimuli/F4.wav","stimuli/Db4.wav","26","Male","French"
"61519988b1ae1bd33e03675a","French","n",1,4.1152,13,"stimuli/F4.wav","stimuli/G4.wav","26","Male","French"
"61519988b1ae1bd33e03675a","French","n",1,4.0801,11,"stimuli/C4.wav","stimuli/Ab4.wav","26","Male","French"
"61519988b1ae1bd33e03675a","French","n",1,5.0515,19,"stimuli/Eb4.wav","stimuli/E4.wav","26","Male","French"
"61519988b1ae1bd33e03675a","French","n",1,4.3571,12,"stimuli/A4.wav","stimuli/D4.wav","26","Male","French"
"61519988b1ae1bd33e03675a","French","n",1,4.3236,6,"stimuli/G4.wav","stimuli/G4.wav","26","Male","French"
"61519988b1ae1bd33e03675a","French","n",1,4.5868,3,"stimuli/Eb4.wav","stimuli/Eb4.wav","26","Male","French"
"615ff3d7e069a03fbcfd1525","French","y",1,5.1739,1,"stimuli/D4.wav","stimuli/F4.wav","27","Male","French"
"615ff3d7e069a03fbcfd1525","French","y",1,4.0666,9,"stimuli/B4.wav","stimuli/B4.wav","27","Male","French"
"615ff3d7e069a03fbcfd1525","French","y",1,4.1717,12,"stimuli/A4.wav","stimuli/D4.wav","27","Male","French"
"615ff3d7e069a03fbcfd1525","French","y",1,4.1419,13,"stimuli/F4.wav","stimuli/G4.wav","27","Male","French"
"615ff3d7e069a03fbcfd1525","French","y",1,3.8929,14,"stimuli/E4.wav","stimuli/B4.wav","27","Male","French"
"615ff3d7e069a03fbcfd1525","French","y",1,3.8243,3,"stimuli/Eb4.wav","stimuli/Eb4.wav","27","Male","French"
"615ff3d7e069a03fbcfd1525","French","y",1,3.9631,10,"stimuli/Db4.wav","stimuli/Ab4.wav","27","Male","French"
"615ff3d7e069a03fbcfd1525","French","y",1,4.0674,11,"stimuli/C4.wav","stimuli/Ab4.wav","27","Male","French"
"615ff3d7e069a03fbcfd1525","French","y",1,3.7294,6,"stimuli/G4.wav","stimuli/G4.wav","27","Male","French"
"615ff3d7e069a03fbcfd1525","French","y",1,3.8386,0,"stimuli/A4.wav","stimuli/Bb4.wav","27","Male","French"
"615ff3d7e069a03fbcfd1525","French","y",1,3.952,8,"stimuli/Bb4.wav","stimuli/C5.wav","27","Male","French"
"615ff3d7e069a03fbcfd1525","French","y",1,3.9113,7,"stimuli/Bb4.wav","stimuli/Db4.wav","27","Male","French"
"615ff3d7e069a03fbcfd1525","French","y",1,3.825,2,"stimuli/F4.wav","stimuli/Db4.wav","27","Male","French"
"615ff3d7e069a03fbcfd1525","French","y",1,3.9689,5,"stimuli/C4.wav","stimuli/F4.wav","27","Male","French"
"615ff3d7e069a03fbcfd1525","French","y",1,3.701,18,"stimuli/C5.wav","stimuli/C5.wav","27","Male","French"
"615ff3d7e069a03fbcfd1525","French","y",1,3.9763,16,"stimuli/G4.wav","stimuli/A4.wav","27","Male","French"
"615ff3d7e069a03fbcfd1525","French","y",1,4.0489,15,"stimuli/Eb4.wav","stimuli/Bb4.wav","27","Male","French"
"615ff3d7e069a03fbcfd1525","French","y",1,5.7416,19,"stimuli/Eb4.wav","stimuli/E4.wav","27","Male","French"
"615ff3d7e069a03fbcfd1525","French","y",1,5.4323,17,"stimuli/C4.wav","stimuli/D4.wav","27","Male","French"
"615ff3d7e069a03fbcfd1525","French","y",1,5.1514,4,"stimuli/C5.wav","stimuli/Eb4.wav","27","Male","French"
"6162b16d7c6f357e6837d263","French","n",1,4.598,10,"stimuli/Db4.wav","stimuli/Ab4.wav","24","Male","French"
"6162b16d7c6f357e6837d263","French","n",1,4.8222,5,"stimuli/C4.wav","stimuli/F4.wav","24","Male","French"
"6162b16d7c6f357e6837d263","French","n",1,4.2784,3,"stimuli/Eb4.wav","stimuli/Eb4.wav","24","Male","French"
"6162b16d7c6f357e6837d263","French","n",1,4.1851,11,"stimuli/C4.wav","stimuli/Ab4.wav","24","Male","French"
"6162b16d7c6f357e6837d263","French","n",1,4.037,19,"stimuli/Eb4.wav","stimuli/E4.wav","24","Male","French"
"6162b16d7c6f357e6837d263","French","n",1,3.9761,0,"stimuli/A4.wav","stimuli/Bb4.wav","24","Male","French"
"6162b16d7c6f357e6837d263","French","n",1,4.3289,7,"stimuli/Bb4.wav","stimuli/Db4.wav","24","Male","French"
"6162b16d7c6f357e6837d263","French","n",1,4.3405,17,"stimuli/C4.wav","stimuli/D4.wav","24","Male","French"
"6162b16d7c6f357e6837d263","French","n",1,4.2753,2,"stimuli/F4.wav","stimuli/Db4.wav","24","Male","French"
"6162b16d7c6f357e6837d263","French","n",1,4.0963,8,"stimuli/Bb4.wav","stimuli/C5.wav","24","Male","French"
"6162b16d7c6f357e6837d263","French","n",1,5.2207,15,"stimuli/Eb4.wav","stimuli/Bb4.wav","24","Male","French"
"6162b16d7c6f357e6837d263","French","n",1,4.0624,1,"stimuli/D4.wav","stimuli/F4.wav","24","Male","French"
"6162b16d7c6f357e6837d263","French","n",1,4.1469,14,"stimuli/E4.wav","stimuli/B4.wav","24","Male","French"
"6162b16d7c6f357e6837d263","French","n",1,4.0791,9,"stimuli/B4.wav","stimuli/B4.wav","24","Male","French"
"6162b16d7c6f357e6837d263","French","n",1,3.8154,4,"stimuli/C5.wav","stimuli/Eb4.wav","24","Male","French"
"6162b16d7c6f357e6837d263","French","n",1,3.9412,16,"stimuli/G4.wav","stimuli/A4.wav","24","Male","French"
"6162b16d7c6f357e6837d263","French","n",1,4.0441,18,"stimuli/C5.wav","stimuli/C5.wav","24","Male","French"
"6162b16d7c6f357e6837d263","French","n",1,3.9393,12,"stimuli/A4.wav","stimuli/D4.wav","24","Male","French"
"6162b16d7c6f357e6837d263","French","n",1,4.3105,6,"stimuli/G4.wav","stimuli/G4.wav","24","Male","French"
"6162b16d7c6f357e6837d263","French","n",1,3.9212,13,"stimuli/F4.wav","stimuli/G4.wav","24","Male","French"
"650d91711c0678166dad3304","French","n",1,5.2107,3,"stimuli/Eb4.wav","stimuli/Eb4.wav","31","Male","French"
"650d91711c0678166dad3304","French","n",1,4.6841,8,"stimuli/Bb4.wav","stimuli/C5.wav","31","Male","French"
"650d91711c0678166dad3304","French","n",1,4.6649,15,"stimuli/Eb4.wav","stimuli/Bb4.wav","31","Male","French"
"650d91711c0678166dad3304","French","n",1,5.6306,17,"stimuli/C4.wav","stimuli/D4.wav","31","Male","French"
"650d91711c0678166dad3304","French","n",1,5.9647,16,"stimuli/G4.wav","stimuli/A4.wav","31","Male","French"
"650d91711c0678166dad3304","French","n",1,5.5655,13,"stimuli/F4.wav","stimuli/G4.wav","31","Male","French"
"650d91711c0678166dad3304","French","n",1,6.015,19,"stimuli/Eb4.wav","stimuli/E4.wav","31","Male","French"
"650d91711c0678166dad3304","French","n",1,4.4657,4,"stimuli/C5.wav","stimuli/Eb4.wav","31","Male","French"
"650d91711c0678166dad3304","French","n",1,6.6783,1,"stimuli/D4.wav","stimuli/F4.wav","31","Male","French"
"650d91711c0678166dad3304","French","n",1,5.6986,0,"stimuli/A4.wav","stimuli/Bb4.wav","31","Male","French"
"650d91711c0678166dad3304","French","n",1,4.6666,12,"stimuli/A4.wav","stimuli/D4.wav","31","Male","French"
"650d91711c0678166dad3304","French","n",1,5.9337,5,"stimuli/C4.wav","stimuli/F4.wav","31","Male","French"
"650d91711c0678166dad3304","French","n",1,4.796,11,"stimuli/C4.wav","stimuli/Ab4.wav","31","Male","French"
"650d91711c0678166dad3304","French","n",1,4.5335,2,"stimuli/F4.wav","stimuli/Db4.wav","31","Male","French"
"650d91711c0678166dad3304","French","n",1,4.7061,14,"stimuli/E4.wav","stimuli/B4.wav","31","Male","French"
"650d91711c0678166dad3304","French","n",1,4.4155,7,"stimuli/Bb4.wav","stimuli/Db4.wav","31","Male","French"
"650d91711c0678166dad3304","French","n",1,4.6148,9,"stimuli/B4.wav","stimuli/B4.wav","31","Male","French"
"650d91711c0678166dad3304","French","n",1,4.3148,6,"stimuli/G4.wav","stimuli/G4.wav","31","Male","French"
"650d91711c0678166dad3304","French","n",1,5.4535,10,"stimuli/Db4.wav","stimuli/Ab4.wav","31","Male","French"
"650d91711c0678166dad3304","French","n",1,4.7335,18,"stimuli/C5.wav","stimuli/C5.wav","31","Male","French"
"65832aaf1752b219f8e8b78d","Mandrain","n",1,7.9025,15,"stimuli/Eb4.wav","stimuli/Bb4.wav","28","Female","Mandarin"
"65832aaf1752b219f8e8b78d","Mandrain","n",1,4.0978,3,"stimuli/Eb4.wav","stimuli/Eb4.wav","28","Female","Mandarin"
"65832aaf1752b219f8e8b78d","Mandrain","n",1,3.8541,9,"stimuli/B4.wav","stimuli/B4.wav","28","Female","Mandarin"
"65832aaf1752b219f8e8b78d","Mandrain","n",1,4.1324,6,"stimuli/G4.wav","stimuli/G4.wav","28","Female","Mandarin"
"65832aaf1752b219f8e8b78d","Mandrain","n",1,4.1017,13,"stimuli/F4.wav","stimuli/G4.wav","28","Female","Mandarin"
"65832aaf1752b219f8e8b78d","Mandrain","n",1,4.2145,0,"stimuli/A4.wav","stimuli/Bb4.wav","28","Female","Mandarin"
"65832aaf1752b219f8e8b78d","Mandrain","n",1,4.5279,10,"stimuli/Db4.wav","stimuli/Ab4.wav","28","Female","Mandarin"
"65832aaf1752b219f8e8b78d","Mandrain","n",1,4.2867,12,"stimuli/A4.wav","stimuli/D4.wav","28","Female","Mandarin"
"65832aaf1752b219f8e8b78d","Mandrain","n",1,4.1317,7,"stimuli/Bb4.wav","stimuli/Db4.wav","28","Female","Mandarin"
"65832aaf1752b219f8e8b78d","Mandrain","n",1,4.0315,16,"stimuli/G4.wav","stimuli/A4.wav","28","Female","Mandarin"
"65832aaf1752b219f8e8b78d","Mandrain","n",1,3.999,2,"stimuli/F4.wav","stimuli/Db4.wav","28","Female","Mandarin"
"65832aaf1752b219f8e8b78d","Mandrain","n",1,4.2643,19,"stimuli/Eb4.wav","stimuli/E4.wav","28","Female","Mandarin"
"65832aaf1752b219f8e8b78d","Mandrain","n",1,4.1488,18,"stimuli/C5.wav","stimuli/C5.wav","28","Female","Mandarin"
"65832aaf1752b219f8e8b78d","Mandrain","n",1,4.067,14,"stimuli/E4.wav","stimuli/B4.wav","28","Female","Mandarin"
"65832aaf1752b219f8e8b78d","Mandrain","n",1,3.8777,4,"stimuli/C5.wav","stimuli/Eb4.wav","28","Female","Mandarin"
"65832aaf1752b219f8e8b78d","Mandrain","n",1,3.9824,1,"stimuli/D4.wav","stimuli/F4.wav","28","Female","Mandarin"
"65832aaf1752b219f8e8b78d","Mandrain","n",1,3.8737,17,"stimuli/C4.wav","stimuli/D4.wav","28","Female","Mandarin"
"65832aaf1752b219f8e8b78d","Mandrain","n",1,4.272,8,"stimuli/Bb4.wav","stimuli/C5.wav","28","Female","Mandarin"
"65832aaf1752b219f8e8b78d","Mandrain","n",1,3.9152,11,"stimuli/C4.wav","stimuli/Ab4.wav","28","Female","Mandarin"
"65832aaf1752b219f8e8b78d","Mandrain","n",1,4.1657,5,"stimuli/C4.wav","stimuli/F4.wav","28","Female","Mandarin"
"65c783e5704051956c8ff924","Mandarin","n",1,5.4283,1,"stimuli/D4.wav","stimuli/F4.wav","23","Male","Mandarin"
"65c783e5704051956c8ff924","Mandarin","n",1,4.5698,3,"stimuli/Eb4.wav","stimuli/Eb4.wav","23","Male","Mandarin"
"65c783e5704051956c8ff924","Mandarin","n",1,4.5645,17,"stimuli/C4.wav","stimuli/D4.wav","23","Male","Mandarin"
"65c783e5704051956c8ff924","Mandarin","n",1,5.0219,4,"stimuli/C5.wav","stimuli/Eb4.wav","23","Male","Mandarin"
"65c783e5704051956c8ff924","Mandarin","n",1,4.6564,11,"stimuli/C4.wav","stimuli/Ab4.wav","23","Male","Mandarin"
"65c783e5704051956c8ff924","Mandarin","n",1,4.6457,14,"stimuli/E4.wav","stimuli/B4.wav","23","Male","Mandarin"
"65c783e5704051956c8ff924","Mandarin","n",1,4.4437,5,"stimuli/C4.wav","stimuli/F4.wav","23","Male","Mandarin"
"65c783e5704051956c8ff924","Mandarin","n",1,4.5179,7,"stimuli/Bb4.wav","stimuli/Db4.wav","23","Male","Mandarin"
"65c783e5704051956c8ff924","Mandarin","n",1,4.6655,15,"stimuli/Eb4.wav","stimuli/Bb4.wav","23","Male","Mandarin"
"65c783e5704051956c8ff924","Mandarin","n",1,4.555,10,"stimuli/Db4.wav","stimuli/Ab4.wav","23","Male","Mandarin"
"65c783e5704051956c8ff924","Mandarin","n",1,4.6477,9,"stimuli/B4.wav","stimuli/B4.wav","23","Male","Mandarin"
"65c783e5704051956c8ff924","Mandarin","n",1,4.5384,6,"stimuli/G4.wav","stimuli/G4.wav","23","Male","Mandarin"
"65c783e5704051956c8ff924","Mandarin","n",1,4.4122,13,"stimuli/F4.wav","stimuli/G4.wav","23","Male","Mandarin"
"65c783e5704051956c8ff924","Mandarin","n",1,4.8203,18,"stimuli/C5.wav","stimuli/C5.wav","23","Male","Mandarin"
"65c783e5704051956c8ff924","Mandarin","n",1,4.9969,0,"stimuli/A4.wav","stimuli/Bb4.wav","23","Male","Mandarin"
"65c783e5704051956c8ff924","Mandarin","n",1,4.7109,12,"stimuli/A4.wav","stimuli/D4.wav","23","Male","Mandarin"
"65c783e5704051956c8ff924","Mandarin","n",1,4.8131,16,"stimuli/G4.wav","stimuli/A4.wav","23","Male","Mandarin"
"65c783e5704051956c8ff924","Mandarin","n",1,4.5009,8,"stimuli/Bb4.wav","stimuli/C5.wav","23","Male","Mandarin"
"65c783e5704051956c8ff924","Mandarin","n",1,4.89,19,"stimuli/Eb4.wav","stimuli/E4.wav","23","Male","Mandarin"
"65c783e5704051956c8ff924","Mandarin","n",1,4.9075,2,"stimuli/F4.wav","stimuli/Db4.wav","23","Male","Mandarin"
"6605c26803e0ed0bb5cdd951","english","y",1,4.3546,19,"stimuli/Eb4.wav","stimuli/E4.wav","50","Female","French"
"6605c26803e0ed0bb5cdd951","english","y",1,4.3199,3,"stimuli/Eb4.wav","stimuli/Eb4.wav","50","Female","French"
"6605c26803e0ed0bb5cdd951","english","y",1,4.4171,14,"stimuli/E4.wav","stimuli/B4.wav","50","Female","French"
"6605c26803e0ed0bb5cdd951","english","y",1,4.2479,10,"stimuli/Db4.wav","stimuli/Ab4.wav","50","Female","French"
"6605c26803e0ed0bb5cdd951","english","y",1,4.4477,4,"stimuli/C5.wav","stimuli/Eb4.wav","50","Female","French"
"6605c26803e0ed0bb5cdd951","english","y",1,4.0969,8,"stimuli/Bb4.wav","stimuli/C5.wav","50","Female","French"
"6605c26803e0ed0bb5cdd951","english","y",1,4.38,16,"stimuli/G4.wav","stimuli/A4.wav","50","Female","French"
"6605c26803e0ed0bb5cdd951","english","y",1,3.781,18,"stimuli/C5.wav","stimuli/C5.wav","50","Female","French"
"6605c26803e0ed0bb5cdd951","english","y",1,3.9162,17,"stimuli/C4.wav","stimuli/D4.wav","50","Female","French"
"6605c26803e0ed0bb5cdd951","english","y",1,4.0826,2,"stimuli/F4.wav","stimuli/Db4.wav","50","Female","French"
"6605c26803e0ed0bb5cdd951","english","y",1,3.9456,15,"stimuli/Eb4.wav","stimuli/Bb4.wav","50","Female","French"
"6605c26803e0ed0bb5cdd951","english","y",1,3.9664,5,"stimuli/C4.wav","stimuli/F4.wav","50","Female","French"
"6605c26803e0ed0bb5cdd951","english","y",1,3.9951,13,"stimuli/F4.wav","stimuli/G4.wav","50","Female","French"
"6605c26803e0ed0bb5cdd951","english","y",1,3.8953,7,"stimuli/Bb4.wav","stimuli/Db4.wav","50","Female","French"
"6605c26803e0ed0bb5cdd951","english","y",1,3.9804,9,"stimuli/B4.wav","stimuli/B4.wav","50","Female","French"
"6605c26803e0ed0bb5cdd951","english","y",1,3.9002,0,"stimuli/A4.wav","stimuli/Bb4.wav","50","Female","French"
"6605c26803e0ed0bb5cdd951","english","y",1,4.1305,11,"stimuli/C4.wav","stimuli/Ab4.wav","50","Female","French"
"6605c26803e0ed0bb5cdd951","english","y",1,4.2634,12,"stimuli/A4.wav","stimuli/D4.wav","50","Female","French"
"6605c26803e0ed0bb5cdd951","english","y",1,3.9971,1,"stimuli/D4.wav","stimuli/F4.wav","50","Female","French"
"6605c26803e0ed0bb5cdd951","english","y",1,3.8189,6,"stimuli/G4.wav","stimuli/G4.wav","50","Female","French"
"6632b1d90cca8a76c401b53e","French","y",1,5.1427,19,"stimuli/Eb4.wav","stimuli/E4.wav","24","Male","French"
"6632b1d90cca8a76c401b53e","French","y",1,5.1227,9,"stimuli/B4.wav","stimuli/B4.wav","24","Male","French"
"6632b1d90cca8a76c401b53e","French","y",1,81.7029,16,"stimuli/G4.wav","stimuli/A4.wav","24","Male","French"
"6632b1d90cca8a76c401b53e","French","y",1,21.2969,2,"stimuli/F4.wav","stimuli/Db4.wav","24","Male","French"
"6632b1d90cca8a76c401b53e","French","y",1,4.6272,5,"stimuli/C4.wav","stimuli/F4.wav","24","Male","French"
"6632b1d90cca8a76c401b53e","French","y",1,14.8695,3,"stimuli/Eb4.wav","stimuli/Eb4.wav","24","Male","French"
"6632b1d90cca8a76c401b53e","French","y",1,16.8949,4,"stimuli/C5.wav","stimuli/Eb4.wav","24","Male","French"
"6632b1d90cca8a76c401b53e","French","y",1,23.8702,12,"stimuli/A4.wav","stimuli/D4.wav","24","Male","French"
"6632b1d90cca8a76c401b53e","French","y",1,50.2159,1,"stimuli/D4.wav","stimuli/F4.wav","24","Male","French"
"6632b1d90cca8a76c401b53e","French","y",1,28.803,14,"stimuli/E4.wav","stimuli/B4.wav","24","Male","French"
"6632b1d90cca8a76c401b53e","French","y",1,43.6901,18,"stimuli/C5.wav","stimuli/C5.wav","24","Male","French"
"6632b1d90cca8a76c401b53e","French","y",1,19.48,6,"stimuli/G4.wav","stimuli/G4.wav","24","Male","French"
"6632b1d90cca8a76c401b53e","French","y",1,111.9573,0,"stimuli/A4.wav","stimuli/Bb4.wav","24","Male","French"
"6632b1d90cca8a76c401b53e","French","y",1,17.6829,8,"stimuli/Bb4.wav","stimuli/C5.wav","24","Male","French"
"6632b1d90cca8a76c401b53e","French","y",1,46.4441,10,"stimuli/Db4.wav","stimuli/Ab4.wav","24","Male","French"
"6632b1d90cca8a76c401b53e","French","y",1,45.7917,13,"stimuli/F4.wav","stimuli/G4.wav","24","Male","French"
"6632b1d90cca8a76c401b53e","French","y",1,8.6677,7,"stimuli/Bb4.wav","stimuli/Db4.wav","24","Male","French"
"6632b1d90cca8a76c401b53e","French","y",1,64.6037,11,"stimuli/C4.wav","stimuli/Ab4.wav","24","Male","French"
"6632b1d90cca8a76c401b53e","French","y",1,4.8834,17,"stimuli/C4.wav","stimuli/D4.wav","24","Male","French"
"6632b1d90cca8a76c401b53e","French","y",1,2.26,15,"stimuli/Eb4.wav","stimuli/Bb4.wav","24","Male","French"
"663932fbad731041c66eb85d","French","n",1,4.8496,15,"stimuli/Eb4.wav","stimuli/Bb4.wav","44","Female","French"
"663932fbad731041c66eb85d","French","n",1,4.3004,14,"stimuli/E4.wav","stimuli/B4.wav","44","Female","French"
"663932fbad731041c66eb85d","French","n",1,4.4189,12,"stimuli/A4.wav","stimuli/D4.wav","44","Female","French"
"663932fbad731041c66eb85d","French","n",1,4.1366,8,"stimuli/Bb4.wav","stimuli/C5.wav","44","Female","French"
"663932fbad731041c66eb85d","French","n",1,4.3172,13,"stimuli/F4.wav","stimuli/G4.wav","44","Female","French"
"663932fbad731041c66eb85d","French","n",1,4.1681,16,"stimuli/G4.wav","stimuli/A4.wav","44","Female","French"
"663932fbad731041c66eb85d","French","n",1,4.3621,19,"stimuli/Eb4.wav","stimuli/E4.wav","44","Female","French"
"663932fbad731041c66eb85d","French","n",1,4.3519,4,"stimuli/C5.wav","stimuli/Eb4.wav","44","Female","French"
"663932fbad731041c66eb85d","French","n",1,4.2164,5,"stimuli/C4.wav","stimuli/F4.wav","44","Female","French"
"663932fbad731041c66eb85d","French","n",1,4.4827,3,"stimuli/Eb4.wav","stimuli/Eb4.wav","44","Female","French"
"663932fbad731041c66eb85d","French","n",1,4.4359,18,"stimuli/C5.wav","stimuli/C5.wav","44","Female","French"
"663932fbad731041c66eb85d","French","n",1,4.3784,17,"stimuli/C4.wav","stimuli/D4.wav","44","Female","French"
"663932fbad731041c66eb85d","French","n",1,4.409,6,"stimuli/G4.wav","stimuli/G4.wav","44","Female","French"
"663932fbad731041c66eb85d","French","n",1,4.3881,10,"stimuli/Db4.wav","stimuli/Ab4.wav","44","Female","French"
"663932fbad731041c66eb85d","French","n",1,4.4461,2,"stimuli/F4.wav","stimuli/Db4.wav","44","Female","French"
"663932fbad731041c66eb85d","French","n",1,4.3348,0,"stimuli/A4.wav","stimuli/Bb4.wav","44","Female","French"
"663932fbad731041c66eb85d","French","n",1,4.5908,9,"stimuli/B4.wav","stimuli/B4.wav","44","Female","French"
"663932fbad731041c66eb85d","French","n",1,4.3844,1,"stimuli/D4.wav","stimuli/F4.wav","44","Female","French"
"663932fbad731041c66eb85d","French","n",1,4.3795,11,"stimuli/C4.wav","stimuli/Ab4.wav","44","Female","French"
"663932fbad731041c66eb85d","French","n",1,4.3615,7,"stimuli/Bb4.wav","stimuli/Db4.wav","44","Female","French"
"664dede21a2c6cb5faf70da9","FRENCH, ENGLISH","y",1,7.5086,19,"stimuli/Eb4.wav","stimuli/E4.wav","33","Female","French"
"664dede21a2c6cb5faf70da9","FRENCH, ENGLISH","y",1,5.7349,13,"stimuli/F4.wav","stimuli/G4.wav","33","Female","French"
"664dede21a2c6cb5faf70da9","FRENCH, ENGLISH","y",1,6.3512,9,"stimuli/B4.wav","stimuli/B4.wav","33","Female","French"
"664dede21a2c6cb5faf70da9","FRENCH, ENGLISH","y",1,4.4545,2,"stimuli/F4.wav","stimuli/Db4.wav","33","Female","French"
"664dede21a2c6cb5faf70da9","FRENCH, ENGLISH","y",1,4.2405,4,"stimuli/C5.wav","stimuli/Eb4.wav","33","Female","French"
"664dede21a2c6cb5faf70da9","FRENCH, ENGLISH","y",1,4.0796,7,"stimuli/Bb4.wav","stimuli/Db4.wav","33","Female","French"
"664dede21a2c6cb5faf70da9","FRENCH, ENGLISH","y",1,7.8285,0,"stimuli/A4.wav","stimuli/Bb4.wav","33","Female","French"
"664dede21a2c6cb5faf70da9","FRENCH, ENGLISH","y",1,4.3379,11,"stimuli/C4.wav","stimuli/Ab4.wav","33","Female","French"
"664dede21a2c6cb5faf70da9","FRENCH, ENGLISH","y",1,5.4193,8,"stimuli/Bb4.wav","stimuli/C5.wav","33","Female","French"
"664dede21a2c6cb5faf70da9","FRENCH, ENGLISH","y",1,3.973,1,"stimuli/D4.wav","stimuli/F4.wav","33","Female","French"
"664dede21a2c6cb5faf70da9","FRENCH, ENGLISH","y",1,4.0885,3,"stimuli/Eb4.wav","stimuli/Eb4.wav","33","Female","French"
"664dede21a2c6cb5faf70da9","FRENCH, ENGLISH","y",1,4.223,12,"stimuli/A4.wav","stimuli/D4.wav","33","Female","French"
"664dede21a2c6cb5faf70da9","FRENCH, ENGLISH","y",1,6.5654,17,"stimuli/C4.wav","stimuli/D4.wav","33","Female","French"
"664dede21a2c6cb5faf70da9","FRENCH, ENGLISH","y",1,4.0568,15,"stimuli/Eb4.wav","stimuli/Bb4.wav","33","Female","French"
"664dede21a2c6cb5faf70da9","FRENCH, ENGLISH","y",1,6.567,14,"stimuli/E4.wav","stimuli/B4.wav","33","Female","French"
"664dede21a2c6cb5faf70da9","FRENCH, ENGLISH","y",1,4.3061,10,"stimuli/Db4.wav","stimuli/Ab4.wav","33","Female","French"
"664dede21a2c6cb5faf70da9","FRENCH, ENGLISH","y",1,4.1205,5,"stimuli/C4.wav","stimuli/F4.wav","33","Female","French"
"664dede21a2c6cb5faf70da9","FRENCH, ENGLISH","y",1,5.1877,16,"stimuli/G4.wav","stimuli/A4.wav","33","Female","French"
"664dede21a2c6cb5faf70da9","FRENCH, ENGLISH","y",1,4.2216,18,"stimuli/C5.wav","stimuli/C5.wav","33","Female","French"
"664dede21a2c6cb5faf70da9","FRENCH, ENGLISH","y",1,4.3073,6,"stimuli/G4.wav","stimuli/G4.wav","33","Female","French"
"664f4729958d6a1fa6ab96de","French","y",1,4.3017,0,"stimuli/A4.wav","stimuli/Bb4.wav","26","Male","French"
"664f4729958d6a1fa6ab96de","French","y",1,4.2092,4,"stimuli/C5.wav","stimuli/Eb4.wav","26","Male","French"
"664f4729958d6a1fa6ab96de","French","y",1,4.4241,18,"stimuli/C5.wav","stimuli/C5.wav","26","Male","French"
"664f4729958d6a1fa6ab96de","French","y",1,4.1392,15,"stimuli/Eb4.wav","stimuli/Bb4.wav","26","Male","French"
"664f4729958d6a1fa6ab96de","French","y",1,3.9398,5,"stimuli/C4.wav","stimuli/F4.wav","26","Male","French"
"664f4729958d6a1fa6ab96de","French","y",1,3.9711,2,"stimuli/F4.wav","stimuli/Db4.wav","26","Male","French"
"664f4729958d6a1fa6ab96de","French","y",1,4.0339,12,"stimuli/A4.wav","stimuli/D4.wav","26","Male","French"
"664f4729958d6a1fa6ab96de","French","y",1,3.909,19,"stimuli/Eb4.wav","stimuli/E4.wav","26","Male","French"
"664f4729958d6a1fa6ab96de","French","y",1,3.8391,10,"stimuli/Db4.wav","stimuli/Ab4.wav","26","Male","French"
"664f4729958d6a1fa6ab96de","French","y",1,3.7019,8,"stimuli/Bb4.wav","stimuli/C5.wav","26","Male","French"
"664f4729958d6a1fa6ab96de","French","y",1,4.0108,3,"stimuli/Eb4.wav","stimuli/Eb4.wav","26","Male","French"
"664f4729958d6a1fa6ab96de","French","y",1,3.7592,17,"stimuli/C4.wav","stimuli/D4.wav","26","Male","French"
"664f4729958d6a1fa6ab96de","French","y",1,3.8016,11,"stimuli/C4.wav","stimuli/Ab4.wav","26","Male","French"
"664f4729958d6a1fa6ab96de","French","y",1,4.5001,13,"stimuli/F4.wav","stimuli/G4.wav","26","Male","French"
"664f4729958d6a1fa6ab96de","French","y",1,3.6945,7,"stimuli/Bb4.wav","stimuli/Db4.wav","26","Male","French"
"664f4729958d6a1fa6ab96de","French","y",1,3.8921,1,"stimuli/D4.wav","stimuli/F4.wav","26","Male","French"
"664f4729958d6a1fa6ab96de","French","y",1,4.1345,9,"stimuli/B4.wav","stimuli/B4.wav","26","Male","French"
"664f4729958d6a1fa6ab96de","French","y",1,3.9447,16,"stimuli/G4.wav","stimuli/A4.wav","26","Male","French"
"664f4729958d6a1fa6ab96de","French","y",1,4.8611,6,"stimuli/G4.wav","stimuli/G4.wav","26","Male","French"
"664f4729958d6a1fa6ab96de","French","y",1,3.8663,14,"stimuli/E4.wav","stimuli/B4.wav","26","Male","French"
"6658bf409f61b7a787ee5d52","French","n",1,6.3687,13,"stimuli/F4.wav","stimuli/G4.wav","19","Female","French"
"6658bf409f61b7a787ee5d52","French","n",1,6.6059,19,"stimuli/Eb4.wav","stimuli/E4.wav","19","Female","French"
"6658bf409f61b7a787ee5d52","French","n",1,5.2856,5,"stimuli/C4.wav","stimuli/F4.wav","19","Female","French"
"6658bf409f61b7a787ee5d52","French","n",1,2.6866,0,"stimuli/A4.wav","stimuli/Bb4.wav","19","Female","French"
"6658bf409f61b7a787ee5d52","French","n",1,2.3183,14,"stimuli/E4.wav","stimuli/B4.wav","19","Female","French"
"6658bf409f61b7a787ee5d52","French","n",1,1.849,16,"stimuli/G4.wav","stimuli/A4.wav","19","Female","French"
"6658bf409f61b7a787ee5d52","French","n",1,1.4889,2,"stimuli/F4.wav","stimuli/Db4.wav","19","Female","French"
"6658bf409f61b7a787ee5d52","French","n",1,1.4043,6,"stimuli/G4.wav","stimuli/G4.wav","19","Female","French"
"6658bf409f61b7a787ee5d52","French","n",1,1.7004,1,"stimuli/D4.wav","stimuli/F4.wav","19","Female","French"
"6658bf409f61b7a787ee5d52","French","n",1,1.2265,9,"stimuli/B4.wav","stimuli/B4.wav","19","Female","French"
"6658bf409f61b7a787ee5d52","French","n",1,1.929,11,"stimuli/C4.wav","stimuli/Ab4.wav","19","Female","French"
"6658bf409f61b7a787ee5d52","French","n",1,1.0347,4,"stimuli/C5.wav","stimuli/Eb4.wav","19","Female","French"
"6658bf409f61b7a787ee5d52","French","n",1,1.6839,15,"stimuli/Eb4.wav","stimuli/Bb4.wav","19","Female","French"
"6658bf409f61b7a787ee5d52","French","n",1,1.4072,18,"stimuli/C5.wav","stimuli/C5.wav","19","Female","French"
"6658bf409f61b7a787ee5d52","French","n",1,3.1993,12,"stimuli/A4.wav","stimuli/D4.wav","19","Female","French"
"6658bf409f61b7a787ee5d52","French","n",1,1.5031,17,"stimuli/C4.wav","stimuli/D4.wav","19","Female","French"
"6658bf409f61b7a787ee5d52","French","n",1,1.2516,3,"stimuli/Eb4.wav","stimuli/Eb4.wav","19","Female","French"
"6658bf409f61b7a787ee5d52","French","n",1,1.0672,7,"stimuli/Bb4.wav","stimuli/Db4.wav","19","Female","French"
"6658bf409f61b7a787ee5d52","French","n",1,1.0679,10,"stimuli/Db4.wav","stimuli/Ab4.wav","19","Female","French"
"6658bf409f61b7a787ee5d52","French","n",1,1.5523,8,"stimuli/Bb4.wav","stimuli/C5.wav","19","Female","French"
"66799be9ea1183434ff60ca5","French","n",1,4.5721,8,"stimuli/Bb4.wav","stimuli/C5.wav","25","Male","French"
"66799be9ea1183434ff60ca5","French","n",1,6.0498,0,"stimuli/A4.wav","stimuli/Bb4.wav","25","Male","French"
"66799be9ea1183434ff60ca5","French","n",1,10.0991,15,"stimuli/Eb4.wav","stimuli/Bb4.wav","25","Male","French"
"66799be9ea1183434ff60ca5","French","n",1,9.4093,4,"stimuli/C5.wav","stimuli/Eb4.wav","25","Male","French"
"66799be9ea1183434ff60ca5","French","n",1,14.3218,9,"stimuli/B4.wav","stimuli/B4.wav","25","Male","French"
"66799be9ea1183434ff60ca5","French","n",1,4.4393,7,"stimuli/Bb4.wav","stimuli/Db4.wav","25","Male","French"
"66799be9ea1183434ff60ca5","French","n",1,11.9188,18,"stimuli/C5.wav","stimuli/C5.wav","25","Male","French"
"66799be9ea1183434ff60ca5","French","n",1,5.2906,12,"stimuli/A4.wav","stimuli/D4.wav","25","Male","French"
"66799be9ea1183434ff60ca5","French","n",1,4.3235,6,"stimuli/G4.wav","stimuli/G4.wav","25","Male","French"
"66799be9ea1183434ff60ca5","French","n",1,4.4453,1,"stimuli/D4.wav","stimuli/F4.wav","25","Male","French"
"66799be9ea1183434ff60ca5","French","n",1,8.6574,5,"stimuli/C4.wav","stimuli/F4.wav","25","Male","French"
"66799be9ea1183434ff60ca5","French","n",1,9.3152,10,"stimuli/Db4.wav","stimuli/Ab4.wav","25","Male","French"
"66799be9ea1183434ff60ca5","French","n",1,12.3736,17,"stimuli/C4.wav","stimuli/D4.wav","25","Male","French"
"66799be9ea1183434ff60ca5","French","n",1,11.6657,3,"stimuli/Eb4.wav","stimuli/Eb4.wav","25","Male","French"
"66799be9ea1183434ff60ca5","French","n",1,5.3546,13,"stimuli/F4.wav","stimuli/G4.wav","25","Male","French"
"66799be9ea1183434ff60ca5","French","n",1,10.078,19,"stimuli/Eb4.wav","stimuli/E4.wav","25","Male","French"
"66799be9ea1183434ff60ca5","French","n",1,9.8072,16,"stimuli/G4.wav","stimuli/A4.wav","25","Male","French"
"66799be9ea1183434ff60ca5","French","n",1,7.9458,11,"stimuli/C4.wav","stimuli/Ab4.wav","25","Male","French"
"66799be9ea1183434ff60ca5","French","n",1,9.1998,14,"stimuli/E4.wav","stimuli/B4.wav","25","Male","French"
"66799be9ea1183434ff60ca5","French","n",1,9.452,2,"stimuli/F4.wav","stimuli/Db4.wav","25","Male","French"
"669177c66d14fd83c2a18125","mandarin","y",1,5.6961,8,"stimuli/Bb4.wav","stimuli/C5.wav","38","Male","Mandarin"
"669177c66d14fd83c2a18125","mandarin","y",1,4.4194,14,"stimuli/E4.wav","stimuli/B4.wav","38","Male","Mandarin"
"669177c66d14fd83c2a18125","mandarin","y",1,4.1792,16,"stimuli/G4.wav","stimuli/A4.wav","38","Male","Mandarin"
"669177c66d14fd83c2a18125","mandarin","y",1,5.1976,19,"stimuli/Eb4.wav","stimuli/E4.wav","38","Male","Mandarin"
"669177c66d14fd83c2a18125","mandarin","y",1,4.4312,7,"stimuli/Bb4.wav","stimuli/Db4.wav","38","Male","Mandarin"
"669177c66d14fd83c2a18125","mandarin","y",1,5.03,12,"stimuli/A4.wav","stimuli/D4.wav","38","Male","Mandarin"
"669177c66d14fd83c2a18125","mandarin","y",1,4.5829,17,"stimuli/C4.wav","stimuli/D4.wav","38","Male","Mandarin"
"669177c66d14fd83c2a18125","mandarin","y",1,4.554,18,"stimuli/C5.wav","stimuli/C5.wav","38","Male","Mandarin"
"669177c66d14fd83c2a18125","mandarin","y",1,8.2971,0,"stimuli/A4.wav","stimuli/Bb4.wav","38","Male","Mandarin"
"669177c66d14fd83c2a18125","mandarin","y",1,4.2132,10,"stimuli/Db4.wav","stimuli/Ab4.wav","38","Male","Mandarin"
"669177c66d14fd83c2a18125","mandarin","y",1,4.5025,5,"stimuli/C4.wav","stimuli/F4.wav","38","Male","Mandarin"
"669177c66d14fd83c2a18125","mandarin","y",1,4.8455,3,"stimuli/Eb4.wav","stimuli/Eb4.wav","38","Male","Mandarin"
"669177c66d14fd83c2a18125","mandarin","y",1,4.281,15,"stimuli/Eb4.wav","stimuli/Bb4.wav","38","Male","Mandarin"
"669177c66d14fd83c2a18125","mandarin","y",1,4.2807,4,"stimuli/C5.wav","stimuli/Eb4.wav","38","Male","Mandarin"
"669177c66d14fd83c2a18125","mandarin","y",1,4.2302,6,"stimuli/G4.wav","stimuli/G4.wav","38","Male","Mandarin"
"669177c66d14fd83c2a18125","mandarin","y",1,4.3879,2,"stimuli/F4.wav","stimuli/Db4.wav","38","Male","Mandarin"
"669177c66d14fd83c2a18125","mandarin","y",1,4.4768,13,"stimuli/F4.wav","stimuli/G4.wav","38","Male","Mandarin"
"669177c66d14fd83c2a18125","mandarin","y",1,4.4297,9,"stimuli/B4.wav","stimuli/B4.wav","38","Male","Mandarin"
"669177c66d14fd83c2a18125","mandarin","y",1,4.0182,1,"stimuli/D4.wav","stimuli/F4.wav","38","Male","Mandarin"
"669177c66d14fd83c2a18125","mandarin","y",1,4.0673,11,"stimuli/C4.wav","stimuli/Ab4.wav","38","Male","Mandarin"
"6695c058614f900eb86deb50","French","n",1,5.2875,13,"stimuli/F4.wav","stimuli/G4.wav","27","Female","French"
"6695c058614f900eb86deb50","French","n",1,4.5617,9,"stimuli/B4.wav","stimuli/B4.wav","27","Female","French"
"6695c058614f900eb86deb50","French","n",1,4.6337,6,"stimuli/G4.wav","stimuli/G4.wav","27","Female","French"
"6695c058614f900eb86deb50","French","n",1,4.4647,12,"stimuli/A4.wav","stimuli/D4.wav","27","Female","French"
"6695c058614f900eb86deb50","French","n",1,4.607,2,"stimuli/F4.wav","stimuli/Db4.wav","27","Female","French"
"6695c058614f900eb86deb50","French","n",1,4.4478,5,"stimuli/C4.wav","stimuli/F4.wav","27","Female","French"
"6695c058614f900eb86deb50","French","n",1,4.5146,17,"stimuli/C4.wav","stimuli/D4.wav","27","Female","French"
"6695c058614f900eb86deb50","French","n",1,4.4883,14,"stimuli/E4.wav","stimuli/B4.wav","27","Female","French"
"6695c058614f900eb86deb50","French","n",1,4.6109,8,"stimuli/Bb4.wav","stimuli/C5.wav","27","Female","French"
"6695c058614f900eb86deb50","French","n",1,4.7906,1,"stimuli/D4.wav","stimuli/F4.wav","27","Female","French"
"6695c058614f900eb86deb50","French","n",1,4.4247,11,"stimuli/C4.wav","stimuli/Ab4.wav","27","Female","French"
"6695c058614f900eb86deb50","French","n",1,4.5231,19,"stimuli/Eb4.wav","stimuli/E4.wav","27","Female","French"
"6695c058614f900eb86deb50","French","n",1,4.6176,10,"stimuli/Db4.wav","stimuli/Ab4.wav","27","Female","French"
"6695c058614f900eb86deb50","French","n",1,4.4126,3,"stimuli/Eb4.wav","stimuli/Eb4.wav","27","Female","French"
"6695c058614f900eb86deb50","French","n",1,4.8685,16,"stimuli/G4.wav","stimuli/A4.wav","27","Female","French"
"6695c058614f900eb86deb50","French","n",1,4.5835,7,"stimuli/Bb4.wav","stimuli/Db4.wav","27","Female","French"
"6695c058614f900eb86deb50","French","n",1,4.429,4,"stimuli/C5.wav","stimuli/Eb4.wav","27","Female","French"
"6695c058614f900eb86deb50","French","n",1,4.3376,18,"stimuli/C5.wav","stimuli/C5.wav","27","Female","French"
"6695c058614f900eb86deb50","French","n",1,4.4814,15,"stimuli/Eb4.wav","stimuli/Bb4.wav","27","Female","French"
"6695c058614f900eb86deb50","French","n",1,5.2657,0,"stimuli/A4.wav","stimuli/Bb4.wav","27","Female","French"
"66a8f239f705eed353903370","French","y",1,4.551,17,"stimuli/C4.wav","stimuli/D4.wav","34","Female","French"
"66a8f239f705eed353903370","French","y",1,4.307,7,"stimuli/Bb4.wav","stimuli/Db4.wav","34","Female","French"
"66a8f239f705eed353903370","French","y",1,4.526,1,"stimuli/D4.wav","stimuli/F4.wav","34","Female","French"
"66a8f239f705eed353903370","French","y",1,4.435,8,"stimuli/Bb4.wav","stimuli/C5.wav","34","Female","French"
"66a8f239f705eed353903370","French","y",1,4.445,19,"stimuli/Eb4.wav","stimuli/E4.wav","34","Female","French"
"66a8f239f705eed353903370","French","y",1,6.833,15,"stimuli/Eb4.wav","stimuli/Bb4.wav","34","Female","French"
"66a8f239f705eed353903370","French","y",1,4.634,2,"stimuli/F4.wav","stimuli/Db4.wav","34","Female","French"
"66a8f239f705eed353903370","French","y",1,4.803,13,"stimuli/F4.wav","stimuli/G4.wav","34","Female","French"
"66a8f239f705eed353903370","French","y",1,5.453,12,"stimuli/A4.wav","stimuli/D4.wav","34","Female","French"
"66a8f239f705eed353903370","French","y",1,4.486,3,"stimuli/Eb4.wav","stimuli/Eb4.wav","34","Female","French"
"66a8f239f705eed353903370","French","y",1,4.417,9,"stimuli/B4.wav","stimuli/B4.wav","34","Female","French"
"66a8f239f705eed353903370","French","y",1,4.401,5,"stimuli/C4.wav","stimuli/F4.wav","34","Female","French"
"66a8f239f705eed353903370","French","y",1,4.576,14,"stimuli/E4.wav","stimuli/B4.wav","34","Female","French"
"66a8f239f705eed353903370","French","y",1,4.393,10,"stimuli/Db4.wav","stimuli/Ab4.wav","34","Female","French"
"66a8f239f705eed353903370","French","y",1,4.42,16,"stimuli/G4.wav","stimuli/A4.wav","34","Female","French"
"66a8f239f705eed353903370","French","y",1,4.373,6,"stimuli/G4.wav","stimuli/G4.wav","34","Female","French"
"66a8f239f705eed353903370","French","y",1,4.418,18,"stimuli/C5.wav","stimuli/C5.wav","34","Female","French"
"66a8f239f705eed353903370","French","y",1,4.399,11,"stimuli/C4.wav","stimuli/Ab4.wav","34","Female","French"
"66a8f239f705eed353903370","French","y",1,4.442,4,"stimuli/C5.wav","stimuli/Eb4.wav","34","Female","French"
"66a8f239f705eed353903370","French","y",1,4.435,0,"stimuli/A4.wav","stimuli/Bb4.wav","34","Female","French"
"66c4a3da2faac6abe33860ec","French","n",1,4.6188,10,"stimuli/Db4.wav","stimuli/Ab4.wav","47","Female","French"
"66c4a3da2faac6abe33860ec","French","n",1,4.3311,3,"stimuli/Eb4.wav","stimuli/Eb4.wav","47","Female","French"
"66c4a3da2faac6abe33860ec","French","n",1,4.6829,11,"stimuli/C4.wav","stimuli/Ab4.wav","47","Female","French"
"66c4a3da2faac6abe33860ec","French","n",1,4.1665,15,"stimuli/Eb4.wav","stimuli/Bb4.wav","47","Female","French"
"66c4a3da2faac6abe33860ec","French","n",1,4.5919,17,"stimuli/C4.wav","stimuli/D4.wav","47","Female","French"
"66c4a3da2faac6abe33860ec","French","n",1,4.5855,8,"stimuli/Bb4.wav","stimuli/C5.wav","47","Female","French"
"66c4a3da2faac6abe33860ec","French","n",1,5.8143,1,"stimuli/D4.wav","stimuli/F4.wav","47","Female","French"
"66c4a3da2faac6abe33860ec","French","n",1,4.6673,13,"stimuli/F4.wav","stimuli/G4.wav","47","Female","French"
"66c4a3da2faac6abe33860ec","French","n",1,4.5703,16,"stimuli/G4.wav","stimuli/A4.wav","47","Female","French"
"66c4a3da2faac6abe33860ec","French","n",1,4.3563,12,"stimuli/A4.wav","stimuli/D4.wav","47","Female","French"
"66c4a3da2faac6abe33860ec","French","n",1,4.6173,6,"stimuli/G4.wav","stimuli/G4.wav","47","Female","French"
"66c4a3da2faac6abe33860ec","French","n",1,4.5383,9,"stimuli/B4.wav","stimuli/B4.wav","47","Female","French"
"66c4a3da2faac6abe33860ec","French","n",1,4.5694,19,"stimuli/Eb4.wav","stimuli/E4.wav","47","Female","French"
"66c4a3da2faac6abe33860ec","French","n",1,4.2315,4,"stimuli/C5.wav","stimuli/Eb4.wav","47","Female","French"
